------------ Data File Created By ActiGraph GT3X+ ActiLife v6.13.4 Firmware v1.7.2 date format M/d/yyyy at 100 Hz  Filter Normal -----------
Serial Number: TAS1H50200818
Start Time 22:35:00
Start Date 11/26/2023
Epoch Period (hh:mm:ss) 00:00:00
Download Time 22:35:40
Download Date 11/26/2023
Current Memory Address: 0
Current Battery Voltage: 4.15     Mode = 12
--------------------------------------------------
Timestamp,Accelerometer X,Accelerometer Y,Accelerometer Z
11/26/2023 22:35:00.000,-0.156,-0.961,0.324
11/26/2023 22:35:00.010,-0.137,-0.965,0.336
11/26/2023 22:35:00.020,-0.133,-0.969,0.336
11/26/2023 22:35:00.030,-0.129,-0.969,0.332
11/26/2023 22:35:00.040,-0.125,-0.969,0.332
11/26/2023 22:35:00.050,-0.125,-0.965,0.336
11/26/2023 22:35:00.060,-0.125,-0.961,0.336
11/26/2023 22:35:00.070,-0.129,-0.965,0.336
11/26/2023 22:35:00.080,-0.133,-0.969,0.336
11/26/2023 22:35:00.090,-0.133,-0.969,0.34
11/26/2023 22:35:00.100,-0.133,-0.961,0.344
11/26/2023 22:35:00.110,-0.137,-0.965,0.34
11/26/2023 22:35:00.120,-0.133,-0.953,0.34
11/26/2023 22:35:00.130,-0.133,-0.961,0.34
11/26/2023 22:35:00.140,-0.125,-0.965,0.34
11/26/2023 22:35:00.150,-0.129,-0.969,0.336
11/26/2023 22:35:00.160,-0.133,-0.969,0.34
11/26/2023 22:35:00.170,-0.133,-0.969,0.34
11/26/2023 22:35:00.180,-0.125,-0.965,0.336
11/26/2023 22:35:00.190,-0.129,-0.961,0.336
11/26/2023 22:35:00.200,-0.133,-0.961,0.336
11/26/2023 22:35:00.210,-0.133,-0.961,0.34
11/26/2023 22:35:00.220,-0.129,-0.961,0.344
11/26/2023 22:35:00.230,-0.125,-0.965,0.336
11/26/2023 22:35:00.240,-0.125,-0.965,0.332
11/26/2023 22:35:00.250,-0.129,-0.961,0.336
11/26/2023 22:35:00.260,-0.129,-0.961,0.336
11/26/2023 22:35:00.270,-0.125,-0.965,0.34
11/26/2023 22:35:00.280,-0.129,-0.965,0.34
11/26/2023 22:35:00.290,-0.129,-0.965,0.344
11/26/2023 22:35:00.300,-0.133,-0.969,0.344
11/26/2023 22:35:00.310,-0.133,-0.973,0.348
11/26/2023 22:35:00.320,-0.133,-0.973,0.348
11/26/2023 22:35:00.330,-0.129,-0.973,0.344
11/26/2023 22:35:00.340,-0.117,-0.969,0.34
11/26/2023 22:35:00.350,-0.117,-0.969,0.336
11/26/2023 22:35:00.360,-0.117,-0.969,0.336
11/26/2023 22:35:00.370,-0.121,-0.961,0.336
11/26/2023 22:35:00.380,-0.121,-0.949,0.336
11/26/2023 22:35:00.390,-0.113,-0.941,0.332
11/26/2023 22:35:00.400,-0.105,-0.938,0.328
11/26/2023 22:35:00.410,-0.102,-0.934,0.328
11/26/2023 22:35:00.420,-0.102,-0.941,0.34
11/26/2023 22:35:00.430,-0.105,-0.953,0.348
11/26/2023 22:35:00.440,-0.102,-0.949,0.348
11/26/2023 22:35:00.450,-0.102,-0.953,0.348
11/26/2023 22:35:00.460,-0.105,-0.953,0.348
11/26/2023 22:35:00.470,-0.105,-0.953,0.344
11/26/2023 22:35:00.480,-0.113,-0.953,0.348
11/26/2023 22:35:00.490,-0.121,-0.949,0.344
11/26/2023 22:35:00.500,-0.141,-0.957,0.348
11/26/2023 22:35:00.510,-0.129,-0.957,0.363
11/26/2023 22:35:00.520,-0.125,-0.961,0.359
11/26/2023 22:35:00.530,-0.125,-0.969,0.363
11/26/2023 22:35:00.540,-0.133,-0.973,0.363
11/26/2023 22:35:00.550,-0.137,-0.973,0.355
11/26/2023 22:35:00.560,-0.137,-0.973,0.355
11/26/2023 22:35:00.570,-0.145,-0.973,0.355
11/26/2023 22:35:00.580,-0.152,-0.973,0.352
11/26/2023 22:35:00.590,-0.152,-0.973,0.352
11/26/2023 22:35:00.600,-0.16,-0.965,0.34
11/26/2023 22:35:00.610,-0.168,-0.961,0.332
11/26/2023 22:35:00.620,-0.168,-0.961,0.332
11/26/2023 22:35:00.630,-0.176,-0.961,0.336
11/26/2023 22:35:00.640,-0.184,-0.961,0.344
11/26/2023 22:35:00.650,-0.191,-0.953,0.348
11/26/2023 22:35:00.660,-0.199,-0.949,0.355
11/26/2023 22:35:00.670,-0.207,-0.945,0.359
11/26/2023 22:35:00.680,-0.223,-0.945,0.355
11/26/2023 22:35:00.690,-0.234,-0.945,0.355
11/26/2023 22:35:00.700,-0.234,-0.941,0.355
11/26/2023 22:35:00.710,-0.238,-0.945,0.348
11/26/2023 22:35:00.720,-0.234,-0.945,0.336
11/26/2023 22:35:00.730,-0.23,-0.945,0.324
11/26/2023 22:35:00.740,-0.234,-0.949,0.32
11/26/2023 22:35:00.750,-0.238,-0.961,0.32
11/26/2023 22:35:00.760,-0.238,-0.957,0.313
11/26/2023 22:35:00.770,-0.23,-0.945,0.293
11/26/2023 22:35:00.780,-0.227,-0.949,0.273
11/26/2023 22:35:00.790,-0.215,-0.965,0.262
11/26/2023 22:35:00.800,-0.211,-0.98,0.246
11/26/2023 22:35:00.810,-0.199,-0.992,0.23
11/26/2023 22:35:00.820,-0.211,-1.004,0.219
11/26/2023 22:35:00.830,-0.219,-1.008,0.211
11/26/2023 22:35:00.840,-0.234,-1.016,0.211
11/26/2023 22:35:00.850,-0.242,-1.012,0.207
11/26/2023 22:35:00.860,-0.262,-0.996,0.184
11/26/2023 22:35:00.870,-0.27,-0.977,0.156
11/26/2023 22:35:00.880,-0.281,-0.973,0.145
11/26/2023 22:35:00.890,-0.289,-0.973,0.145
11/26/2023 22:35:00.900,-0.293,-0.977,0.148
11/26/2023 22:35:00.910,-0.305,-0.977,0.16
11/26/2023 22:35:00.920,-0.309,-0.98,0.168
11/26/2023 22:35:00.930,-0.309,-0.969,0.172
11/26/2023 22:35:00.940,-0.305,-0.953,0.172
11/26/2023 22:35:00.950,-0.297,-0.941,0.176
11/26/2023 22:35:00.960,-0.293,-0.941,0.176
11/26/2023 22:35:00.970,-0.293,-0.949,0.176
11/26/2023 22:35:00.980,-0.285,-0.953,0.191
11/26/2023 22:35:00.990,-0.293,-0.957,0.188
11/26/2023 22:35:01.000,-0.313,-0.957,0.188
11/26/2023 22:35:01.010,-0.328,-0.957,0.191
11/26/2023 22:35:01.020,-0.352,-0.945,0.18
11/26/2023 22:35:01.030,-0.371,-0.934,0.164
11/26/2023 22:35:01.040,-0.379,-0.93,0.145
11/26/2023 22:35:01.050,-0.367,-0.938,0.121
11/26/2023 22:35:01.060,-0.348,-0.953,0.109
11/26/2023 22:35:01.070,-0.313,-0.973,0.105
11/26/2023 22:35:01.080,-0.277,-1,0.109
11/26/2023 22:35:01.090,-0.254,-1.031,0.121
11/26/2023 22:35:01.100,-0.238,-1.055,0.148
11/26/2023 22:35:01.110,-0.23,-1.074,0.168
11/26/2023 22:35:01.120,-0.227,-1.074,0.184
11/26/2023 22:35:01.130,-0.23,-1.059,0.191
11/26/2023 22:35:01.140,-0.238,-1.051,0.191
11/26/2023 22:35:01.150,-0.246,-1.031,0.199
11/26/2023 22:35:01.160,-0.25,-1.012,0.199
11/26/2023 22:35:01.170,-0.262,-1,0.195
11/26/2023 22:35:01.180,-0.254,-0.996,0.191
11/26/2023 22:35:01.190,-0.238,-1,0.188
11/26/2023 22:35:01.200,-0.207,-1,0.195
11/26/2023 22:35:01.210,-0.188,-1.008,0.211
11/26/2023 22:35:01.220,-0.164,-1.031,0.238
11/26/2023 22:35:01.230,-0.148,-1.051,0.285
11/26/2023 22:35:01.240,-0.148,-1.074,0.324
11/26/2023 22:35:01.250,-0.141,-1.066,0.34
11/26/2023 22:35:01.260,-0.125,-1.035,0.309
11/26/2023 22:35:01.270,-0.113,-1.008,0.277
11/26/2023 22:35:01.280,-0.121,-1,0.277
11/26/2023 22:35:01.290,-0.176,-1.016,0.309
11/26/2023 22:35:01.300,-0.25,-1.027,0.313
11/26/2023 22:35:01.310,-0.301,-0.996,0.27
11/26/2023 22:35:01.320,-0.348,-0.941,0.207
11/26/2023 22:35:01.330,-0.375,-0.91,0.184
11/26/2023 22:35:01.340,-0.348,-0.914,0.191
11/26/2023 22:35:01.350,-0.293,-0.938,0.242
11/26/2023 22:35:01.360,-0.242,-0.969,0.301
11/26/2023 22:35:01.370,-0.18,-0.98,0.332
11/26/2023 22:35:01.380,-0.121,-0.965,0.348
11/26/2023 22:35:01.390,-0.059,-0.93,0.383
11/26/2023 22:35:01.400,-0.031,-0.918,0.465
11/26/2023 22:35:01.410,-0.031,-0.922,0.523
11/26/2023 22:35:01.420,-0.039,-0.906,0.531
11/26/2023 22:35:01.430,-0.035,-0.883,0.496
11/26/2023 22:35:01.440,-0.008,-0.879,0.449
11/26/2023 22:35:01.450,0.02,-0.906,0.418
11/26/2023 22:35:01.460,0.027,-0.949,0.41
11/26/2023 22:35:01.470,0.047,-0.996,0.418
11/26/2023 22:35:01.480,0.063,-1.02,0.418
11/26/2023 22:35:01.490,0.074,-1.02,0.406
11/26/2023 22:35:01.500,0.078,-1.004,0.398
11/26/2023 22:35:01.510,0.094,-0.988,0.41
11/26/2023 22:35:01.520,0.113,-0.984,0.438
11/26/2023 22:35:01.530,0.125,-0.969,0.441
11/26/2023 22:35:01.540,0.121,-0.945,0.434
11/26/2023 22:35:01.550,0.102,-0.93,0.422
11/26/2023 22:35:01.560,0.086,-0.922,0.422
11/26/2023 22:35:01.570,0.074,-0.91,0.414
11/26/2023 22:35:01.580,0.074,-0.875,0.387
11/26/2023 22:35:01.590,0.09,-0.852,0.367
11/26/2023 22:35:01.600,0.102,-0.836,0.371
11/26/2023 22:35:01.610,0.133,-0.816,0.371
11/26/2023 22:35:01.620,0.164,-0.801,0.387
11/26/2023 22:35:01.630,0.18,-0.797,0.41
11/26/2023 22:35:01.640,0.195,-0.805,0.422
11/26/2023 22:35:01.650,0.227,-0.809,0.418
11/26/2023 22:35:01.660,0.258,-0.801,0.414
11/26/2023 22:35:01.670,0.281,-0.816,0.422
11/26/2023 22:35:01.680,0.301,-0.848,0.43
11/26/2023 22:35:01.690,0.313,-0.887,0.418
11/26/2023 22:35:01.700,0.332,-0.926,0.367
11/26/2023 22:35:01.710,0.355,-0.965,0.289
11/26/2023 22:35:01.720,0.398,-1,0.215
11/26/2023 22:35:01.730,0.453,-1.035,0.164
11/26/2023 22:35:01.740,0.516,-1.07,0.133
11/26/2023 22:35:01.750,0.598,-1.078,0.098
11/26/2023 22:35:01.760,0.688,-1.063,0.09
11/26/2023 22:35:01.770,0.762,-1.035,0.098
11/26/2023 22:35:01.780,0.813,-0.996,0.102
11/26/2023 22:35:01.790,0.844,-0.945,0.105
11/26/2023 22:35:01.800,0.863,-0.879,0.094
11/26/2023 22:35:01.810,0.863,-0.816,0.078
11/26/2023 22:35:01.820,0.848,-0.777,0.066
11/26/2023 22:35:01.830,0.813,-0.766,0.063
11/26/2023 22:35:01.840,0.77,-0.766,0.063
11/26/2023 22:35:01.850,0.719,-0.762,0.059
11/26/2023 22:35:01.860,0.684,-0.77,0.043
11/26/2023 22:35:01.870,0.656,-0.777,0.023
11/26/2023 22:35:01.880,0.641,-0.793,0
11/26/2023 22:35:01.890,0.633,-0.816,-0.023
11/26/2023 22:35:01.900,0.633,-0.848,-0.035
11/26/2023 22:35:01.910,0.629,-0.883,-0.047
11/26/2023 22:35:01.920,0.633,-0.918,-0.047
11/26/2023 22:35:01.930,0.633,-0.93,-0.039
11/26/2023 22:35:01.940,0.625,-0.926,-0.02
11/26/2023 22:35:01.950,0.621,-0.91,-0.012
11/26/2023 22:35:01.960,0.629,-0.902,0
11/26/2023 22:35:01.970,0.637,-0.898,0
11/26/2023 22:35:01.980,0.645,-0.902,0.004
11/26/2023 22:35:01.990,0.672,-0.918,0.016
11/26/2023 22:35:02.000,0.688,-0.934,0.027
11/26/2023 22:35:02.010,0.723,-0.953,0.055
11/26/2023 22:35:02.020,0.727,-0.984,0.074
11/26/2023 22:35:02.030,0.723,-1.008,0.094
11/26/2023 22:35:02.040,0.707,-1.031,0.109
11/26/2023 22:35:02.050,0.68,-1.039,0.121
11/26/2023 22:35:02.060,0.648,-1.043,0.133
11/26/2023 22:35:02.070,0.617,-1.027,0.152
11/26/2023 22:35:02.080,0.586,-1.004,0.176
11/26/2023 22:35:02.090,0.551,-0.98,0.176
11/26/2023 22:35:02.100,0.52,-0.949,0.176
11/26/2023 22:35:02.110,0.496,-0.922,0.168
11/26/2023 22:35:02.120,0.469,-0.895,0.172
11/26/2023 22:35:02.130,0.445,-0.875,0.172
11/26/2023 22:35:02.140,0.43,-0.852,0.191
11/26/2023 22:35:02.150,0.41,-0.82,0.207
11/26/2023 22:35:02.160,0.383,-0.805,0.238
11/26/2023 22:35:02.170,0.355,-0.801,0.254
11/26/2023 22:35:02.180,0.363,-0.766,0.254
11/26/2023 22:35:02.190,0.367,-0.719,0.219
11/26/2023 22:35:02.200,0.355,-0.656,0.176
11/26/2023 22:35:02.210,0.344,-0.598,0.164
11/26/2023 22:35:02.220,0.336,-0.563,0.156
11/26/2023 22:35:02.230,0.336,-0.543,0.168
11/26/2023 22:35:02.240,0.359,-0.539,0.176
11/26/2023 22:35:02.250,0.391,-0.555,0.172
11/26/2023 22:35:02.260,0.41,-0.594,0.141
11/26/2023 22:35:02.270,0.434,-0.652,0.121
11/26/2023 22:35:02.280,0.434,-0.719,0.137
11/26/2023 22:35:02.290,0.422,-0.781,0.176
11/26/2023 22:35:02.300,0.402,-0.816,0.195
11/26/2023 22:35:02.310,0.387,-0.801,0.199
11/26/2023 22:35:02.320,0.355,-0.762,0.172
11/26/2023 22:35:02.330,0.309,-0.707,0.16
11/26/2023 22:35:02.340,0.242,-0.668,0.168
11/26/2023 22:35:02.350,0.172,-0.637,0.199
11/26/2023 22:35:02.360,0.117,-0.617,0.223
11/26/2023 22:35:02.370,0.078,-0.605,0.238
11/26/2023 22:35:02.380,0.059,-0.602,0.25
11/26/2023 22:35:02.390,0.039,-0.637,0.254
11/26/2023 22:35:02.400,0.031,-0.703,0.262
11/26/2023 22:35:02.410,0.035,-0.785,0.258
11/26/2023 22:35:02.420,0.051,-0.859,0.227
11/26/2023 22:35:02.430,0.059,-0.926,0.176
11/26/2023 22:35:02.440,0.074,-0.969,0.125
11/26/2023 22:35:02.450,0.07,-1.016,0.055
11/26/2023 22:35:02.460,0.082,-1.055,-0.016
11/26/2023 22:35:02.470,0.117,-1.078,-0.055
11/26/2023 22:35:02.480,0.16,-1.09,-0.066
11/26/2023 22:35:02.490,0.207,-1.078,-0.063
11/26/2023 22:35:02.500,0.258,-1.051,-0.055
11/26/2023 22:35:02.510,0.344,-0.984,-0.039
11/26/2023 22:35:02.520,0.422,-0.906,-0.02
11/26/2023 22:35:02.530,0.48,-0.844,0.012
11/26/2023 22:35:02.540,0.535,-0.777,0.055
11/26/2023 22:35:02.550,0.59,-0.695,0.098
11/26/2023 22:35:02.560,0.613,-0.609,0.133
11/26/2023 22:35:02.570,0.59,-0.527,0.16
11/26/2023 22:35:02.580,0.543,-0.438,0.164
11/26/2023 22:35:02.590,0.484,-0.32,0.141
11/26/2023 22:35:02.600,0.406,-0.184,0.102
11/26/2023 22:35:02.610,0.309,-0.051,0.066
11/26/2023 22:35:02.620,0.199,0.051,0.063
11/26/2023 22:35:02.630,0.094,0.102,0.07
11/26/2023 22:35:02.640,0,0.109,0.078
11/26/2023 22:35:02.650,-0.063,0.102,0.055
11/26/2023 22:35:02.660,-0.066,0.094,0.02
11/26/2023 22:35:02.670,0.004,0.063,0.027
11/26/2023 22:35:02.680,0.063,-0.027,0.082
11/26/2023 22:35:02.690,0.141,-0.23,0.215
11/26/2023 22:35:02.700,0.344,-0.52,0.469
11/26/2023 22:35:02.710,0.457,-0.887,0.668
11/26/2023 22:35:02.720,0.484,-1.262,0.672
11/26/2023 22:35:02.730,0.621,-1.484,0.414
11/26/2023 22:35:02.740,0.855,-1.629,-0.027
11/26/2023 22:35:02.750,1.012,-1.938,-0.492
11/26/2023 22:35:02.760,0.898,-2.93,-0.609
11/26/2023 22:35:02.770,0.738,-4.188,-0.574
11/26/2023 22:35:02.780,0.949,-4.895,-0.43
11/26/2023 22:35:02.790,1.078,-4.734,-0.195
11/26/2023 22:35:02.800,0.82,-3.941,-0.113
11/26/2023 22:35:02.810,0.656,-2.918,-0.055
11/26/2023 22:35:02.820,0.594,-2.32,0.051
11/26/2023 22:35:02.830,0.539,-2.379,0.242
11/26/2023 22:35:02.840,0.551,-2.793,0.461
11/26/2023 22:35:02.850,0.469,-3.223,0.496
11/26/2023 22:35:02.860,0.434,-3.313,0.488
11/26/2023 22:35:02.870,0.234,-2.883,0.473
11/26/2023 22:35:02.880,0.043,-2.137,0.516
11/26/2023 22:35:02.890,0.043,-1.391,0.406
11/26/2023 22:35:02.900,0.195,-0.961,-0.063
11/26/2023 22:35:02.910,0.652,-0.836,-0.441
11/26/2023 22:35:02.920,1.188,-0.824,-0.398
11/26/2023 22:35:02.930,1.328,-0.785,-0.254
11/26/2023 22:35:02.940,1.02,-0.559,-0.207
11/26/2023 22:35:02.950,0.699,-0.035,-0.281
11/26/2023 22:35:02.960,0.375,0.68,-0.43
11/26/2023 22:35:02.970,0.254,1.352,-0.59
11/26/2023 22:35:02.980,0.355,1.758,-0.809
11/26/2023 22:35:02.990,0.48,1.742,-1.016
11/26/2023 22:35:03.000,0.445,1.406,-1.039
11/26/2023 22:35:03.010,0.297,0.875,-0.727
11/26/2023 22:35:03.020,0.195,0.242,-0.273
11/26/2023 22:35:03.030,0.199,-0.355,0.078
11/26/2023 22:35:03.040,0.141,-0.793,0.219
11/26/2023 22:35:03.050,0,-0.914,0.215
11/26/2023 22:35:03.060,-0.156,-0.77,0.152
11/26/2023 22:35:03.070,-0.324,-0.543,0.094
11/26/2023 22:35:03.080,-0.473,-0.379,0.09
11/26/2023 22:35:03.090,-0.551,-0.293,0.16
11/26/2023 22:35:03.100,-0.594,-0.25,0.238
11/26/2023 22:35:03.110,-0.594,-0.223,0.355
11/26/2023 22:35:03.120,-0.496,-0.168,0.453
11/26/2023 22:35:03.130,-0.348,-0.078,0.426
11/26/2023 22:35:03.140,-0.242,0.07,0.273
11/26/2023 22:35:03.150,-0.164,0.227,0.102
11/26/2023 22:35:03.160,-0.094,0.297,0.008
11/26/2023 22:35:03.170,-0.043,0.258,-0.027
11/26/2023 22:35:03.180,-0.016,0.152,-0.02
11/26/2023 22:35:03.190,0.016,0.035,0.02
11/26/2023 22:35:03.200,0.059,-0.07,0.051
11/26/2023 22:35:03.210,0.133,-0.137,0.063
11/26/2023 22:35:03.220,0.219,-0.164,0.012
11/26/2023 22:35:03.230,0.266,-0.137,-0.105
11/26/2023 22:35:03.240,0.285,-0.066,-0.211
11/26/2023 22:35:03.250,0.293,0.012,-0.262
11/26/2023 22:35:03.260,0.285,0.039,-0.234
11/26/2023 22:35:03.270,0.238,0.031,-0.199
11/26/2023 22:35:03.280,0.172,0,-0.188
11/26/2023 22:35:03.290,0.152,-0.074,-0.152
11/26/2023 22:35:03.300,0.188,-0.246,0.023
11/26/2023 22:35:03.310,0.043,-0.547,0.379
11/26/2023 22:35:03.320,-0.148,-0.797,0.664
11/26/2023 22:35:03.330,-0.215,-0.902,0.637
11/26/2023 22:35:03.340,-0.207,-1.117,0.43
11/26/2023 22:35:03.350,-0.27,-2.297,0.27
11/26/2023 22:35:03.360,0.02,-5.09,-0.543
11/26/2023 22:35:03.370,1.332,-7.121,-0.406
11/26/2023 22:35:03.380,2.18,-7.527,0.453
11/26/2023 22:35:03.390,2.141,-6.297,0.672
11/26/2023 22:35:03.400,0.887,-4.258,0.164
11/26/2023 22:35:03.410,-0.422,-2.039,-0.469
11/26/2023 22:35:03.420,-0.559,-1.453,0.133
11/26/2023 22:35:03.430,-0.574,-2.414,1.305
11/26/2023 22:35:03.440,-0.559,-3.117,1.707
11/26/2023 22:35:03.450,-0.43,-2.984,1.316
11/26/2023 22:35:03.460,-0.195,-2.488,0.699
11/26/2023 22:35:03.470,0.148,-2.047,0.203
11/26/2023 22:35:03.480,0.492,-1.797,0.039
11/26/2023 22:35:03.490,0.902,-1.688,0.152
11/26/2023 22:35:03.500,1.102,-1.441,0.184
11/26/2023 22:35:03.510,1.031,-1.063,0.164
11/26/2023 22:35:03.520,0.824,-0.641,0.09
11/26/2023 22:35:03.530,0.547,-0.227,-0.039
11/26/2023 22:35:03.540,0.25,0.137,-0.145
11/26/2023 22:35:03.550,-0.004,0.445,-0.188
11/26/2023 22:35:03.560,-0.191,0.723,-0.203
11/26/2023 22:35:03.570,-0.277,0.961,-0.305
11/26/2023 22:35:03.580,-0.344,1.012,-0.668
11/26/2023 22:35:03.590,-0.379,0.883,-1.047
11/26/2023 22:35:03.600,-0.328,0.633,-1.008
11/26/2023 22:35:03.610,-0.219,0.293,-0.594
11/26/2023 22:35:03.620,-0.063,-0.129,0.023
11/26/2023 22:35:03.630,0.012,-0.516,0.355
11/26/2023 22:35:03.640,-0.02,-0.699,0.426
11/26/2023 22:35:03.650,-0.082,-0.609,0.328
11/26/2023 22:35:03.660,-0.109,-0.355,0.195
11/26/2023 22:35:03.670,-0.09,-0.105,0.082
11/26/2023 22:35:03.680,-0.074,0.012,0.043
11/26/2023 22:35:03.690,-0.102,-0.031,0.086
11/26/2023 22:35:03.700,-0.105,-0.164,0.188
11/26/2023 22:35:03.710,-0.043,-0.266,0.297
11/26/2023 22:35:03.720,0.063,-0.254,0.281
11/26/2023 22:35:03.730,0.133,-0.141,0.148
11/26/2023 22:35:03.740,0.145,-0.016,0.012
11/26/2023 22:35:03.750,0.164,0.07,-0.047
11/26/2023 22:35:03.760,0.156,0.125,-0.082
11/26/2023 22:35:03.770,0.141,0.176,-0.086
11/26/2023 22:35:03.780,0.133,0.211,-0.074
11/26/2023 22:35:03.790,0.129,0.234,-0.047
11/26/2023 22:35:03.800,0.109,0.23,-0.043
11/26/2023 22:35:03.810,0.09,0.219,-0.051
11/26/2023 22:35:03.820,0.035,0.203,-0.102
11/26/2023 22:35:03.830,0.012,0.125,-0.156
11/26/2023 22:35:03.840,0.008,-0.066,-0.051
11/26/2023 22:35:03.850,-0.051,-0.359,0.277
11/26/2023 22:35:03.860,-0.074,-0.707,0.727
11/26/2023 22:35:03.870,-0.02,-1,0.879
11/26/2023 22:35:03.880,0.152,-1.152,0.559
11/26/2023 22:35:03.890,0.234,-1.477,0.285
11/26/2023 22:35:03.900,0.5,-3.133,0.191
11/26/2023 22:35:03.910,1.664,-6.055,-0.395
11/26/2023 22:35:03.920,2.676,-7.641,0.293
11/26/2023 22:35:03.930,2.484,-7.215,0.305
11/26/2023 22:35:03.940,1.25,-5.566,0.035
11/26/2023 22:35:03.950,-0.484,-3.492,-0.266
11/26/2023 22:35:03.960,-1.234,-2.352,-0.043
11/26/2023 22:35:03.970,-1.047,-2.848,0.809
11/26/2023 22:35:03.980,-0.582,-3.473,1.234
11/26/2023 22:35:03.990,-0.094,-3.266,1.016
11/26/2023 22:35:04.000,0.242,-2.621,0.566
11/26/2023 22:35:04.010,0.508,-1.969,0.262
11/26/2023 22:35:04.020,0.746,-1.43,0.086
11/26/2023 22:35:04.030,0.973,-0.996,-0.082
11/26/2023 22:35:04.040,1.059,-0.641,-0.195
11/26/2023 22:35:04.050,0.969,-0.324,-0.242
11/26/2023 22:35:04.060,0.754,-0.094,-0.273
11/26/2023 22:35:04.070,0.602,0.133,-0.203
11/26/2023 22:35:04.080,0.438,0.402,-0.156
11/26/2023 22:35:04.090,0.168,0.719,-0.191
11/26/2023 22:35:04.100,-0.102,1.082,-0.391
11/26/2023 22:35:04.110,-0.301,1.281,-0.813
11/26/2023 22:35:04.120,-0.316,1.301,-1.027
11/26/2023 22:35:04.130,-0.281,1.078,-0.902
11/26/2023 22:35:04.140,-0.223,0.605,-0.563
11/26/2023 22:35:04.150,-0.086,-0.008,0.004
11/26/2023 22:35:04.160,0.023,-0.613,0.375
11/26/2023 22:35:04.170,-0.008,-0.973,0.449
11/26/2023 22:35:04.180,-0.066,-0.973,0.348
11/26/2023 22:35:04.190,-0.066,-0.719,0.211
11/26/2023 22:35:04.200,-0.039,-0.398,0.102
11/26/2023 22:35:04.210,-0.039,-0.172,0.086
11/26/2023 22:35:04.220,-0.074,-0.094,0.156
11/26/2023 22:35:04.230,-0.137,-0.145,0.285
11/26/2023 22:35:04.240,-0.156,-0.223,0.355
11/26/2023 22:35:04.250,-0.098,-0.215,0.313
11/26/2023 22:35:04.260,-0.023,-0.137,0.18
11/26/2023 22:35:04.270,0.035,-0.02,0.059
11/26/2023 22:35:04.280,0.066,0.098,-0.031
11/26/2023 22:35:04.290,0.082,0.191,-0.113
11/26/2023 22:35:04.300,0.102,0.242,-0.176
11/26/2023 22:35:04.310,0.16,0.25,-0.188
11/26/2023 22:35:04.320,0.195,0.227,-0.168
11/26/2023 22:35:04.330,0.191,0.191,-0.113
11/26/2023 22:35:04.340,0.137,0.141,-0.039
11/26/2023 22:35:04.350,0.047,0.098,0.043
11/26/2023 22:35:04.360,-0.043,0.074,0.109
11/26/2023 22:35:04.370,-0.094,0.043,0.023
11/26/2023 22:35:04.380,-0.02,-0.035,-0.07
11/26/2023 22:35:04.390,0.074,-0.227,0.125
11/26/2023 22:35:04.400,0.035,-0.539,0.379
11/26/2023 22:35:04.410,0.043,-0.836,0.52
11/26/2023 22:35:04.420,0.121,-1.164,0.52
11/26/2023 22:35:04.430,0.16,-1.652,0.441
11/26/2023 22:35:04.440,0.234,-3.145,0.199
11/26/2023 22:35:04.450,0.82,-5.828,-0.805
11/26/2023 22:35:04.460,1.766,-7.918,-0.188
11/26/2023 22:35:04.470,2.285,-7.715,0.617
11/26/2023 22:35:04.480,1.477,-5.727,0.719
11/26/2023 22:35:04.490,-0.07,-3.105,0.086
11/26/2023 22:35:04.500,-0.836,-1.594,-0.301
11/26/2023 22:35:04.510,-0.465,-1.984,0.496
11/26/2023 22:35:04.520,0.168,-3.098,1.191
11/26/2023 22:35:04.530,0.703,-3.547,1.207
11/26/2023 22:35:04.540,0.645,-3.137,0.758
11/26/2023 22:35:04.550,0.637,-2.313,0.344
11/26/2023 22:35:04.560,0.516,-1.488,0.129
11/26/2023 22:35:04.570,0.246,-0.824,-0.152
11/26/2023 22:35:04.580,0.16,-0.391,-0.25
11/26/2023 22:35:04.590,0.258,-0.063,-0.258
11/26/2023 22:35:04.600,0.277,0.145,-0.188
11/26/2023 22:35:04.610,0.273,0.477,-0.133
11/26/2023 22:35:04.620,0.152,0.703,-0.145
11/26/2023 22:35:04.630,-0.039,0.859,-0.168
11/26/2023 22:35:04.640,-0.172,0.965,-0.297
11/26/2023 22:35:04.650,-0.18,0.914,-0.574
11/26/2023 22:35:04.660,-0.027,0.773,-0.672
11/26/2023 22:35:04.670,0.152,0.547,-0.535
11/26/2023 22:35:04.680,0.262,0.246,-0.313
11/26/2023 22:35:04.690,0.277,-0.105,-0.082
11/26/2023 22:35:04.700,0.27,-0.422,0.09
11/26/2023 22:35:04.710,0.297,-0.625,0.184
11/26/2023 22:35:04.720,0.316,-0.652,0.203
11/26/2023 22:35:04.730,0.262,-0.563,0.129
11/26/2023 22:35:04.740,0.195,-0.402,0.035
11/26/2023 22:35:04.750,0.145,-0.238,-0.023
11/26/2023 22:35:04.760,0.094,-0.133,-0.027
11/26/2023 22:35:04.770,0,-0.086,0.012
11/26/2023 22:35:04.780,-0.098,-0.082,0.09
11/26/2023 22:35:04.790,-0.16,-0.09,0.16
11/26/2023 22:35:04.800,-0.18,-0.066,0.188
11/26/2023 22:35:04.810,-0.184,0.008,0.164
11/26/2023 22:35:04.820,-0.211,0.113,0.094
11/26/2023 22:35:04.830,-0.234,0.23,0
11/26/2023 22:35:04.840,-0.238,0.309,-0.078
11/26/2023 22:35:04.850,-0.18,0.305,-0.078
11/26/2023 22:35:04.860,-0.105,0.23,-0.043
11/26/2023 22:35:04.870,-0.07,0.105,-0.027
11/26/2023 22:35:04.880,-0.051,-0.012,-0.031
11/26/2023 22:35:04.890,0,-0.105,-0.031
11/26/2023 22:35:04.900,0.035,-0.242,0.078
11/26/2023 22:35:04.910,-0.027,-0.52,0.336
11/26/2023 22:35:04.920,-0.109,-0.898,0.715
11/26/2023 22:35:04.930,-0.141,-1.184,0.91
11/26/2023 22:35:04.940,-0.094,-1.273,0.559
11/26/2023 22:35:04.950,-0.133,-1.492,0.145
11/26/2023 22:35:04.960,-0.293,-2.633,0.535
11/26/2023 22:35:04.970,0.125,-4.727,-0.137
11/26/2023 22:35:04.980,1.266,-6.645,-0.055
11/26/2023 22:35:04.990,2.281,-6.984,0.684
11/26/2023 22:35:05.000,1.883,-6.051,0.793
11/26/2023 22:35:05.010,0.762,-4.125,0.563
11/26/2023 22:35:05.020,-0.191,-2.246,0.02
11/26/2023 22:35:05.030,-0.566,-1.789,0.152
11/26/2023 22:35:05.040,-0.332,-2.543,0.871
11/26/2023 22:35:05.050,-0.027,-3.395,1.316
11/26/2023 22:35:05.060,0.145,-3.309,1.027
11/26/2023 22:35:05.070,0.145,-2.641,0.449
11/26/2023 22:35:05.080,0.25,-1.871,0.078
11/26/2023 22:35:05.090,0.496,-1.156,-0.047
11/26/2023 22:35:05.100,0.738,-0.605,-0.105
11/26/2023 22:35:05.110,0.855,-0.242,-0.152
11/26/2023 22:35:05.120,0.777,-0.02,-0.191
11/26/2023 22:35:05.130,0.496,0.113,-0.219
11/26/2023 22:35:05.140,-0.004,0.367,-0.281
11/26/2023 22:35:05.150,-0.258,0.719,-0.277
11/26/2023 22:35:05.160,-0.414,1.016,-0.625
11/26/2023 22:35:05.170,-0.281,1.063,-0.461
11/26/2023 22:35:05.180,-0.016,0.871,-0.176
11/26/2023 22:35:05.190,0.148,0.691,-0.145
11/26/2023 22:35:05.200,0.098,0.426,-0.176
11/26/2023 22:35:05.210,0.043,0.074,-0.133
11/26/2023 22:35:05.220,0.25,-0.102,-0.027
11/26/2023 22:35:05.230,0.52,-0.129,0.055
11/26/2023 22:35:05.240,0.742,-0.074,0.102
11/26/2023 22:35:05.250,1.133,0.063,0.152
11/26/2023 22:35:05.260,0.43,0.121,0
11/26/2023 22:35:05.270,-0.949,-0.613,-0.395
11/26/2023 22:35:05.280,-0.984,-1.051,-0.25
11/26/2023 22:35:05.290,-0.305,-0.793,0.133
11/26/2023 22:35:05.300,0.082,-0.336,0.254
11/26/2023 22:35:05.310,0.008,-0.094,0.172
11/26/2023 22:35:05.320,-0.184,-0.012,0.078
11/26/2023 22:35:05.330,-0.188,0.039,0.066
11/26/2023 22:35:05.340,-0.105,0.082,0.074
11/26/2023 22:35:05.350,-0.066,0.113,0.055
11/26/2023 22:35:05.360,-0.039,0.129,0.023
11/26/2023 22:35:05.370,-0.02,0.148,-0.02
11/26/2023 22:35:05.380,0.012,0.16,-0.078
11/26/2023 22:35:05.390,0.051,0.125,-0.113
11/26/2023 22:35:05.400,0.105,0.063,-0.098
11/26/2023 22:35:05.410,0.105,0,-0.066
11/26/2023 22:35:05.420,0.125,-0.078,-0.031
11/26/2023 22:35:05.430,0.145,-0.203,0.148
11/26/2023 22:35:05.440,0.047,-0.461,0.559
11/26/2023 22:35:05.450,-0.074,-0.754,1.137
11/26/2023 22:35:05.460,-0.086,-0.93,1.492
11/26/2023 22:35:05.470,-0.082,-1.004,1
11/26/2023 22:35:05.480,-0.23,-1.359,0.121
11/26/2023 22:35:05.490,-0.172,-3.059,0.266
11/26/2023 22:35:05.500,0.422,-6.109,-0.246
11/26/2023 22:35:05.510,1.953,-7.688,0.703
11/26/2023 22:35:05.520,2.742,-7.043,0.941
11/26/2023 22:35:05.530,1.883,-5.242,0.77
11/26/2023 22:35:05.540,0.48,-3.055,0.371
11/26/2023 22:35:05.550,-0.258,-1.922,0.316
11/26/2023 22:35:05.560,-0.371,-2.313,0.879
11/26/2023 22:35:05.570,-0.031,-2.797,1.289
11/26/2023 22:35:05.580,0.211,-2.777,1.094
11/26/2023 22:35:05.590,0.145,-2.34,0.594
11/26/2023 22:35:05.600,0.063,-1.703,0.27
11/26/2023 22:35:05.610,0.117,-1.117,0.156
11/26/2023 22:35:05.620,0.262,-0.672,0.086
11/26/2023 22:35:05.630,0.375,-0.316,0.02
11/26/2023 22:35:05.640,0.375,0.012,-0.031
11/26/2023 22:35:05.650,0.332,0.313,-0.063
11/26/2023 22:35:05.660,0.215,0.508,-0.066
11/26/2023 22:35:05.670,0.102,0.625,-0.055
11/26/2023 22:35:05.680,0.059,0.723,-0.09
11/26/2023 22:35:05.690,0.043,0.758,-0.219
11/26/2023 22:35:05.700,0.043,0.73,-0.41
11/26/2023 22:35:05.710,0.047,0.609,-0.527
11/26/2023 22:35:05.720,0.063,0.438,-0.504
11/26/2023 22:35:05.730,0.039,0.207,-0.352
11/26/2023 22:35:05.740,0.012,-0.09,-0.09
11/26/2023 22:35:05.750,0.047,-0.375,0.133
11/26/2023 22:35:05.760,0.113,-0.535,0.199
11/26/2023 22:35:05.770,0.129,-0.547,0.145
11/26/2023 22:35:05.780,0.098,-0.461,0.059
11/26/2023 22:35:05.790,0.09,-0.352,0.02
11/26/2023 22:35:05.800,0.098,-0.254,0.012
11/26/2023 22:35:05.810,0.055,-0.188,0.016
11/26/2023 22:35:05.820,-0.043,-0.18,0.031
11/26/2023 22:35:05.830,-0.129,-0.195,0.066
11/26/2023 22:35:05.840,-0.188,-0.184,0.09
11/26/2023 22:35:05.850,-0.188,-0.121,0.078
11/26/2023 22:35:05.860,-0.18,-0.016,0.043
11/26/2023 22:35:05.870,-0.184,0.109,-0.004
11/26/2023 22:35:05.880,-0.172,0.227,-0.055
11/26/2023 22:35:05.890,-0.145,0.313,-0.117
11/26/2023 22:35:05.900,-0.086,0.344,-0.152
11/26/2023 22:35:05.910,-0.055,0.313,-0.18
11/26/2023 22:35:05.920,-0.008,0.238,-0.211
11/26/2023 22:35:05.930,0.066,0.109,-0.227
11/26/2023 22:35:05.940,0.109,-0.125,-0.094
11/26/2023 22:35:05.950,0.047,-0.527,0.305
11/26/2023 22:35:05.960,-0.027,-1.016,0.879
11/26/2023 22:35:05.970,0.004,-1.332,1.18
11/26/2023 22:35:05.980,0.012,-1.449,0.727
11/26/2023 22:35:05.990,-0.121,-1.828,0.508
11/26/2023 22:35:06.000,0.551,-3.844,0.027
11/26/2023 22:35:06.010,1.449,-7.086,-0.109
11/26/2023 22:35:06.020,1.98,-7.816,0.621
11/26/2023 22:35:06.030,1.648,-6.402,0.488
11/26/2023 22:35:06.040,0.848,-4.063,0.207
11/26/2023 22:35:06.050,-0.16,-2.289,-0.273
11/26/2023 22:35:06.060,-1.051,-2.332,-0.156
11/26/2023 22:35:06.070,-0.785,-3.172,0.578
11/26/2023 22:35:06.080,0.531,-3.422,1.137
11/26/2023 22:35:06.090,0.867,-3.211,1.086
11/26/2023 22:35:06.100,0.453,-2.648,0.586
11/26/2023 22:35:06.110,0.316,-1.832,0.203
11/26/2023 22:35:06.120,0.5,-1.102,-0.016
11/26/2023 22:35:06.130,0.816,-0.566,-0.09
11/26/2023 22:35:06.140,1.02,-0.164,-0.094
11/26/2023 22:35:06.150,0.969,0.176,-0.102
11/26/2023 22:35:06.160,0.68,0.48,-0.121
11/26/2023 22:35:06.170,0.375,0.762,-0.195
11/26/2023 22:35:06.180,0.164,1.016,-0.234
11/26/2023 22:35:06.190,0,1.141,-0.414
11/26/2023 22:35:06.200,-0.125,1.113,-0.629
11/26/2023 22:35:06.210,-0.152,0.941,-0.691
11/26/2023 22:35:06.220,-0.098,0.668,-0.598
11/26/2023 22:35:06.230,0.023,0.352,-0.363
11/26/2023 22:35:06.240,0.129,-0.012,-0.078
11/26/2023 22:35:06.250,0.164,-0.375,0.148
11/26/2023 22:35:06.260,0.121,-0.637,0.207
11/26/2023 22:35:06.270,0.039,-0.734,0.16
11/26/2023 22:35:06.280,0.004,-0.645,0.055
11/26/2023 22:35:06.290,0.02,-0.457,-0.023
11/26/2023 22:35:06.300,0.066,-0.27,-0.063
11/26/2023 22:35:06.310,0.063,-0.121,-0.051
11/26/2023 22:35:06.320,-0.016,-0.09,0.004
11/26/2023 22:35:06.330,-0.098,-0.129,0.086
11/26/2023 22:35:06.340,-0.113,-0.176,0.176
11/26/2023 22:35:06.350,-0.066,-0.148,0.215
11/26/2023 22:35:06.360,-0.027,-0.066,0.172
11/26/2023 22:35:06.370,-0.02,0.07,0.086
11/26/2023 22:35:06.380,-0.047,0.184,-0.008
11/26/2023 22:35:06.390,-0.027,0.258,-0.07
11/26/2023 22:35:06.400,0.031,0.277,-0.086
11/26/2023 22:35:06.410,-0.055,0.25,-0.137
11/26/2023 22:35:06.420,-0.137,0.188,-0.125
11/26/2023 22:35:06.430,-0.063,0.117,-0.051
11/26/2023 22:35:06.440,-0.004,0.035,-0.008
11/26/2023 22:35:06.450,0.027,-0.043,-0.035
11/26/2023 22:35:06.460,0.07,-0.168,0
11/26/2023 22:35:06.470,0.109,-0.418,0.215
11/26/2023 22:35:06.480,0.152,-0.84,0.668
11/26/2023 22:35:06.490,0.145,-1.246,1.055
11/26/2023 22:35:06.500,0.191,-1.473,0.934
11/26/2023 22:35:06.510,0.086,-2.215,0.676
11/26/2023 22:35:06.520,0.012,-4.02,1.02
11/26/2023 22:35:06.530,0.723,-6.086,0.695
11/26/2023 22:35:06.540,0.703,-6.414,0.598
11/26/2023 22:35:06.550,0.891,-5.352,1.324
11/26/2023 22:35:06.560,1.207,-3.863,1.367
11/26/2023 22:35:06.570,0.926,-3.406,1.113
11/26/2023 22:35:06.580,0.516,-3.535,0.898
11/26/2023 22:35:06.590,0.281,-3.539,0.82
11/26/2023 22:35:06.600,0.238,-3.242,0.672
11/26/2023 22:35:06.610,0.227,-2.836,0.477
11/26/2023 22:35:06.620,0.164,-2.348,0.27
11/26/2023 22:35:06.630,0.059,-1.824,0.129
11/26/2023 22:35:06.640,0.02,-1.238,0.047
11/26/2023 22:35:06.650,0.121,-0.66,0.023
11/26/2023 22:35:06.660,0.266,-0.195,0.027
11/26/2023 22:35:06.670,0.418,0.117,0.078
11/26/2023 22:35:06.680,0.496,0.359,0.09
11/26/2023 22:35:06.690,0.438,0.602,0.133
11/26/2023 22:35:06.700,0.301,0.887,0.074
11/26/2023 22:35:06.710,0.203,1.133,-0.16
11/26/2023 22:35:06.720,0.145,1.113,-0.398
11/26/2023 22:35:06.730,0.043,0.805,-0.582
11/26/2023 22:35:06.740,-0.02,0.496,-0.613
11/26/2023 22:35:06.750,0.02,0.273,-0.477
11/26/2023 22:35:06.760,0.137,0.125,-0.254
11/26/2023 22:35:06.770,0.207,-0.035,-0.074
11/26/2023 22:35:06.780,0.176,-0.098,-0.09
11/26/2023 22:35:06.790,0.098,-0.121,-0.184
11/26/2023 22:35:06.800,0.055,-0.227,-0.133
11/26/2023 22:35:06.810,0.047,-0.461,0.082
11/26/2023 22:35:06.820,0.027,-0.711,0.227
11/26/2023 22:35:06.830,-0.008,-0.781,0.254
11/26/2023 22:35:06.840,-0.086,-0.648,0.195
11/26/2023 22:35:06.850,-0.207,-0.391,0.098
11/26/2023 22:35:06.860,-0.266,-0.117,0.043
11/26/2023 22:35:06.870,-0.262,0.051,0.043
11/26/2023 22:35:06.880,-0.215,0.113,0.055
11/26/2023 22:35:06.890,-0.16,0.113,0.063
11/26/2023 22:35:06.900,-0.141,0.105,0.031
11/26/2023 22:35:06.910,-0.129,0.125,-0.016
11/26/2023 22:35:06.920,-0.102,0.156,-0.074
11/26/2023 22:35:06.930,-0.059,0.184,-0.121
11/26/2023 22:35:06.940,-0.02,0.168,-0.137
11/26/2023 22:35:06.950,0.035,0.129,-0.152
11/26/2023 22:35:06.960,0.152,0.051,-0.172
11/26/2023 22:35:06.970,0.305,-0.078,-0.09
11/26/2023 22:35:06.980,0.41,-0.309,0.121
11/26/2023 22:35:06.990,0.438,-0.629,0.594
11/26/2023 22:35:07.000,0.398,-0.98,1.207
11/26/2023 22:35:07.010,0.414,-1.277,1.242
11/26/2023 22:35:07.020,0.438,-1.563,0.563
11/26/2023 22:35:07.030,0.59,-3.051,0.809
11/26/2023 22:35:07.040,1.086,-5.867,0.723
11/26/2023 22:35:07.050,1.281,-7.707,0.328
11/26/2023 22:35:07.060,1.348,-7.207,0.777
11/26/2023 22:35:07.070,1.109,-5.18,1.09
11/26/2023 22:35:07.080,0.254,-2.535,0.52
11/26/2023 22:35:07.090,-0.512,-1.391,0.027
11/26/2023 22:35:07.100,-0.254,-1.875,0.637
11/26/2023 22:35:07.110,0.438,-2.844,1.301
11/26/2023 22:35:07.120,0.891,-3.395,1.262
11/26/2023 22:35:07.130,0.996,-3.168,0.828
11/26/2023 22:35:07.140,0.855,-2.359,0.434
11/26/2023 22:35:07.150,0.684,-1.605,0.23
11/26/2023 22:35:07.160,0.547,-1.031,0.07
11/26/2023 22:35:07.170,0.555,-0.574,0.012
11/26/2023 22:35:07.180,0.559,-0.18,-0.074
11/26/2023 22:35:07.190,0.402,0.184,-0.191
11/26/2023 22:35:07.200,0.203,0.523,-0.266
11/26/2023 22:35:07.210,-0.023,0.848,-0.297
11/26/2023 22:35:07.220,-0.215,1.164,-0.367
11/26/2023 22:35:07.230,-0.238,1.355,-0.645
11/26/2023 22:35:07.240,-0.148,1.305,-0.926
11/26/2023 22:35:07.250,-0.023,1.039,-0.938
11/26/2023 22:35:07.260,0.082,0.633,-0.641
11/26/2023 22:35:07.270,0.172,0.133,-0.129
11/26/2023 22:35:07.280,0.156,-0.379,0.23
11/26/2023 22:35:07.290,0.094,-0.746,0.352
11/26/2023 22:35:07.300,0.063,-0.871,0.309
11/26/2023 22:35:07.310,0.063,-0.754,0.172
11/26/2023 22:35:07.320,0.051,-0.52,0.012
11/26/2023 22:35:07.330,0.02,-0.316,-0.102
11/26/2023 22:35:07.340,-0.008,-0.191,-0.148
11/26/2023 22:35:07.350,-0.004,-0.148,-0.094
11/26/2023 22:35:07.360,-0.008,-0.156,-0.004
11/26/2023 22:35:07.370,-0.027,-0.156,0.066
11/26/2023 22:35:07.380,-0.031,-0.117,0.094
11/26/2023 22:35:07.390,-0.023,-0.043,0.082
11/26/2023 22:35:07.400,-0.027,0.043,0.051
11/26/2023 22:35:07.410,-0.035,0.133,0.004
11/26/2023 22:35:07.420,-0.031,0.191,-0.02
11/26/2023 22:35:07.430,0,0.211,-0.023
11/26/2023 22:35:07.440,0.047,0.215,-0.008
11/26/2023 22:35:07.450,0.07,0.188,0.004
11/26/2023 22:35:07.460,0.043,0.133,0.027
11/26/2023 22:35:07.470,0.012,0.059,0.043
11/26/2023 22:35:07.480,0.055,-0.008,-0.004
11/26/2023 22:35:07.490,0.148,-0.098,0.02
11/26/2023 22:35:07.500,0.168,-0.34,0.195
11/26/2023 22:35:07.510,0.141,-0.773,0.715
11/26/2023 22:35:07.520,0.086,-1.238,1.344
11/26/2023 22:35:07.530,0.137,-1.531,1.348
11/26/2023 22:35:07.540,0.188,-1.785,1.031
11/26/2023 22:35:07.550,0.398,-3.086,1.219
11/26/2023 22:35:07.560,1.094,-5.746,-0.035
11/26/2023 22:35:07.570,1.625,-7.781,-0.039
11/26/2023 22:35:07.580,1.953,-7.438,0.43
11/26/2023 22:35:07.590,1.301,-5.719,0.688
11/26/2023 22:35:07.600,0.176,-3.301,0.145
11/26/2023 22:35:07.610,-0.238,-1.855,-0.211
11/26/2023 22:35:07.620,0,-2.344,0.355
11/26/2023 22:35:07.630,0.477,-3.063,0.934
11/26/2023 22:35:07.640,0.82,-2.965,0.82
11/26/2023 22:35:07.650,0.676,-2.16,0.363
11/26/2023 22:35:07.660,0.297,-1.477,0.32
11/26/2023 22:35:07.670,0.082,-0.93,0.41
11/26/2023 22:35:07.680,-0.043,-0.398,0.406
11/26/2023 22:35:07.690,-0.152,0.063,0.148
11/26/2023 22:35:07.700,0.043,0.52,-0.129
11/26/2023 22:35:07.710,0.391,0.918,-0.188
11/26/2023 22:35:07.720,0.457,1.121,-0.199
11/26/2023 22:35:07.730,0.133,1.082,-0.465
11/26/2023 22:35:07.740,-0.223,0.977,-0.766
11/26/2023 22:35:07.750,-0.297,0.863,-0.859
11/26/2023 22:35:07.760,-0.156,0.672,-0.75
11/26/2023 22:35:07.770,0.043,0.387,-0.531
11/26/2023 22:35:07.780,0.258,0.074,-0.203
11/26/2023 22:35:07.790,0.348,-0.281,0.004
11/26/2023 22:35:07.800,0.301,-0.609,0.086
11/26/2023 22:35:07.810,0.23,-0.836,0.117
11/26/2023 22:35:07.820,0.207,-0.875,0.129
11/26/2023 22:35:07.830,0.199,-0.75,0.102
11/26/2023 22:35:07.840,0.145,-0.555,0.043
11/26/2023 22:35:07.850,0.082,-0.332,0
11/26/2023 22:35:07.860,0.039,-0.105,-0.02
11/26/2023 22:35:07.870,0.008,0.078,0.012
11/26/2023 22:35:07.880,-0.035,0.172,0.059
11/26/2023 22:35:07.890,-0.078,0.18,0.105
11/26/2023 22:35:07.900,-0.098,0.148,0.129
11/26/2023 22:35:07.910,-0.086,0.145,0.133
11/26/2023 22:35:07.920,-0.082,0.152,0.102
11/26/2023 22:35:07.930,-0.094,0.164,0.059
11/26/2023 22:35:07.940,-0.098,0.152,0.039
11/26/2023 22:35:07.950,-0.086,0.109,0.031
11/26/2023 22:35:07.960,-0.066,0.055,0.016
11/26/2023 22:35:07.970,-0.047,0.012,-0.023
11/26/2023 22:35:07.980,0.008,-0.035,-0.094
11/26/2023 22:35:07.990,0.113,-0.125,-0.137
11/26/2023 22:35:08.000,0.16,-0.316,-0.066
11/26/2023 22:35:08.010,0.121,-0.645,0.145
11/26/2023 22:35:08.020,0.098,-1.043,0.527
11/26/2023 22:35:08.030,0.125,-1.371,0.945
11/26/2023 22:35:08.040,0.117,-1.637,1.055
11/26/2023 22:35:08.050,-0.066,-2.074,0.949
11/26/2023 22:35:08.060,0.102,-3.34,0.918
11/26/2023 22:35:08.070,0.539,-5.281,0.523
11/26/2023 22:35:08.080,0.992,-6.32,0.449
11/26/2023 22:35:08.090,1.434,-5.566,1.082
11/26/2023 22:35:08.100,0.984,-4.031,1.293
11/26/2023 22:35:08.110,0.09,-2.754,0.852
11/26/2023 22:35:08.120,-0.02,-2.344,0.688
11/26/2023 22:35:08.130,0.152,-2.582,0.859
11/26/2023 22:35:08.140,0.18,-3.008,0.93
11/26/2023 22:35:08.150,0.25,-3.086,0.836
11/26/2023 22:35:08.160,0.316,-2.766,0.629
11/26/2023 22:35:08.170,0.27,-2.215,0.398
11/26/2023 22:35:08.180,0.16,-1.57,0.242
11/26/2023 22:35:08.190,0.094,-0.945,0.168
11/26/2023 22:35:08.200,0.141,-0.465,0.098
11/26/2023 22:35:08.210,0.281,-0.133,0.063
11/26/2023 22:35:08.220,0.449,0.156,0.117
11/26/2023 22:35:08.230,0.5,0.398,0.031
11/26/2023 22:35:08.240,0.379,0.563,-0.156
11/26/2023 22:35:08.250,0.184,0.648,-0.313
11/26/2023 22:35:08.260,0.066,0.707,-0.383
11/26/2023 22:35:08.270,0.051,0.762,-0.434
11/26/2023 22:35:08.280,0.063,0.73,-0.516
11/26/2023 22:35:08.290,0.078,0.586,-0.496
11/26/2023 22:35:08.300,0.086,0.348,-0.359
11/26/2023 22:35:08.310,0.066,0.051,-0.164
11/26/2023 22:35:08.320,0.016,-0.258,0.031
11/26/2023 22:35:08.330,0.008,-0.484,0.176
11/26/2023 22:35:08.340,0.02,-0.555,0.215
11/26/2023 22:35:08.350,0.039,-0.484,0.184
11/26/2023 22:35:08.360,0.059,-0.363,0.125
11/26/2023 22:35:08.370,0.078,-0.258,0.074
11/26/2023 22:35:08.380,0.078,-0.199,0.059
11/26/2023 22:35:08.390,0.063,-0.184,0.078
11/26/2023 22:35:08.400,0.02,-0.176,0.109
11/26/2023 22:35:08.410,-0.035,-0.16,0.129
11/26/2023 22:35:08.420,-0.063,-0.105,0.137
11/26/2023 22:35:08.430,-0.078,-0.012,0.105
11/26/2023 22:35:08.440,-0.098,0.105,0.031
11/26/2023 22:35:08.450,-0.137,0.203,-0.059
11/26/2023 22:35:08.460,-0.168,0.254,-0.109
11/26/2023 22:35:08.470,-0.172,0.234,-0.133
11/26/2023 22:35:08.480,-0.148,0.164,-0.145
11/26/2023 22:35:08.490,-0.066,0.074,-0.148
11/26/2023 22:35:08.500,0.047,-0.027,-0.102
11/26/2023 22:35:08.510,0.09,-0.223,0.09
11/26/2023 22:35:08.520,0.02,-0.5,0.426
11/26/2023 22:35:08.530,-0.066,-0.809,0.953
11/26/2023 22:35:08.540,-0.086,-1.07,1.383
11/26/2023 22:35:08.550,-0.008,-1.203,1.105
11/26/2023 22:35:08.560,-0.098,-1.547,0.883
11/26/2023 22:35:08.570,-0.5,-3.348,1.047
11/26/2023 22:35:08.580,0.168,-6.715,-0.359
11/26/2023 22:35:08.590,1.898,-8,0.352
11/26/2023 22:35:08.600,2.375,-7.184,0.914
11/26/2023 22:35:08.610,1.781,-5.113,0.992
11/26/2023 22:35:08.620,1.148,-3.156,0.785
11/26/2023 22:35:08.630,0.391,-2.484,0.508
11/26/2023 22:35:08.640,-0.734,-2.594,0.387
11/26/2023 22:35:08.650,-1.406,-2.375,0.164
11/26/2023 22:35:08.660,-1.156,-1.871,0.008
11/26/2023 22:35:08.670,-0.414,-1.441,0.047
11/26/2023 22:35:08.680,0.176,-1.074,0.059
11/26/2023 22:35:08.690,0.48,-0.723,0.012
11/26/2023 22:35:08.700,0.605,-0.379,-0.039
11/26/2023 22:35:08.710,0.688,-0.051,-0.102
11/26/2023 22:35:08.720,0.77,0.273,-0.102
11/26/2023 22:35:08.730,0.758,0.555,-0.07
11/26/2023 22:35:08.740,0.66,0.758,-0.07
11/26/2023 22:35:08.750,0.52,0.898,-0.109
11/26/2023 22:35:08.760,0.273,0.867,-0.242
11/26/2023 22:35:08.770,0.043,0.668,-0.359
11/26/2023 22:35:08.780,-0.035,0.398,-0.379
11/26/2023 22:35:08.790,-0.004,0.152,-0.293
11/26/2023 22:35:08.800,0.035,0,-0.219
11/26/2023 22:35:08.810,0.121,-0.09,-0.109
11/26/2023 22:35:08.820,0.172,-0.227,-0.016
11/26/2023 22:35:08.830,0.086,-0.418,0.012
11/26/2023 22:35:08.840,0.031,-0.531,-0.004
11/26/2023 22:35:08.850,0.008,-0.555,-0.008
11/26/2023 22:35:08.860,0.023,-0.508,-0.012
11/26/2023 22:35:08.870,0.035,-0.387,-0.008
11/26/2023 22:35:08.880,-0.031,-0.25,0.004
11/26/2023 22:35:08.890,-0.137,-0.148,0.047
11/26/2023 22:35:08.900,-0.18,-0.078,0.082
11/26/2023 22:35:08.910,-0.145,-0.035,0.098
11/26/2023 22:35:08.920,-0.086,-0.004,0.063
11/26/2023 22:35:08.930,-0.047,0.031,0.02
11/26/2023 22:35:08.940,-0.039,0.066,-0.031
11/26/2023 22:35:08.950,-0.039,0.098,-0.066
11/26/2023 22:35:08.960,-0.031,0.137,-0.074
11/26/2023 22:35:08.970,0.02,0.168,-0.066
11/26/2023 22:35:08.980,0.117,0.188,-0.039
11/26/2023 22:35:08.990,0.211,0.18,0.035
11/26/2023 22:35:09.000,0.219,0.098,0.113
11/26/2023 22:35:09.010,0.172,-0.086,0.215
11/26/2023 22:35:09.020,0.152,-0.336,0.449
11/26/2023 22:35:09.030,0.117,-0.711,1.008
11/26/2023 22:35:09.040,0.066,-1.195,1.586
11/26/2023 22:35:09.050,0.27,-1.371,1.547
11/26/2023 22:35:09.060,0.375,-1.414,1.027
11/26/2023 22:35:09.070,-0.035,-2.371,1.156
11/26/2023 22:35:09.080,0.125,-4.75,0.59
11/26/2023 22:35:09.090,0.605,-7.117,-0.055
11/26/2023 22:35:09.100,1.211,-7.051,0.559
11/26/2023 22:35:09.110,1.203,-5.613,1.289
11/26/2023 22:35:09.120,0.746,-3.797,1.141
11/26/2023 22:35:09.130,0.293,-2.555,0.625
11/26/2023 22:35:09.140,-0.113,-2.539,0.645
11/26/2023 22:35:09.150,-0.301,-2.922,0.91
11/26/2023 22:35:09.160,-0.23,-2.934,1.066
11/26/2023 22:35:09.170,-0.188,-2.516,0.875
11/26/2023 22:35:09.180,-0.309,-1.898,0.543
11/26/2023 22:35:09.190,-0.352,-1.23,0.293
11/26/2023 22:35:09.200,-0.164,-0.594,0.137
11/26/2023 22:35:09.210,0.129,-0.074,0.031
11/26/2023 22:35:09.220,0.352,0.336,-0.117
11/26/2023 22:35:09.230,0.469,0.641,-0.305
11/26/2023 22:35:09.240,0.512,0.848,-0.383
11/26/2023 22:35:09.250,0.52,0.992,-0.391
11/26/2023 22:35:09.260,0.488,0.996,-0.566
11/26/2023 22:35:09.270,0.469,0.926,-0.668
11/26/2023 22:35:09.280,0.383,0.73,-0.629
11/26/2023 22:35:09.290,0.27,0.457,-0.492
11/26/2023 22:35:09.300,0.211,0.148,-0.258
11/26/2023 22:35:09.310,0.207,-0.141,0
11/26/2023 22:35:09.320,0.215,-0.371,0.188
11/26/2023 22:35:09.330,0.184,-0.512,0.242
11/26/2023 22:35:09.340,0.109,-0.559,0.172
11/26/2023 22:35:09.350,0.039,-0.5,0.063
11/26/2023 22:35:09.360,0.012,-0.395,-0.023
11/26/2023 22:35:09.370,-0.004,-0.285,-0.063
11/26/2023 22:35:09.380,-0.043,-0.223,-0.063
11/26/2023 22:35:09.390,-0.125,-0.234,-0.02
11/26/2023 22:35:09.400,-0.172,-0.266,0.063
11/26/2023 22:35:09.410,-0.148,-0.258,0.141
11/26/2023 22:35:09.420,-0.09,-0.18,0.129
11/26/2023 22:35:09.430,-0.039,-0.043,0.059
11/26/2023 22:35:09.440,-0.02,0.09,-0.012
11/26/2023 22:35:09.450,-0.016,0.211,-0.031
11/26/2023 22:35:09.460,-0.02,0.273,0
11/26/2023 22:35:09.470,-0.02,0.297,0.035
11/26/2023 22:35:09.480,0.016,0.285,0.031
11/26/2023 22:35:09.490,0.078,0.27,0.027
11/26/2023 22:35:09.500,0.105,0.223,0.004
11/26/2023 22:35:09.510,0.137,0.133,-0.043
11/26/2023 22:35:09.520,0.191,-0.012,-0.102
11/26/2023 22:35:09.530,0.23,-0.23,-0.023
11/26/2023 22:35:09.540,0.191,-0.559,0.297
11/26/2023 22:35:09.550,0.098,-0.996,0.832
11/26/2023 22:35:09.560,0.09,-1.34,1.09
11/26/2023 22:35:09.570,0.355,-1.797,0.871
11/26/2023 22:35:09.580,0.355,-3.191,1.094
11/26/2023 22:35:09.590,0.703,-6.27,0.609
11/26/2023 22:35:09.600,1.285,-7.43,0.832
11/26/2023 22:35:09.610,1.555,-6.297,1.422
11/26/2023 22:35:09.620,1.25,-4.766,1.297
11/26/2023 22:35:09.630,0.379,-3.551,0.684
11/26/2023 22:35:09.640,-0.129,-2.996,0.371
11/26/2023 22:35:09.650,-0.059,-3.078,0.59
11/26/2023 22:35:09.660,0.246,-3.176,0.871
11/26/2023 22:35:09.670,0.402,-2.922,0.895
11/26/2023 22:35:09.680,0.398,-2.387,0.699
11/26/2023 22:35:09.690,0.293,-1.734,0.445
11/26/2023 22:35:09.700,0.215,-1.129,0.242
11/26/2023 22:35:09.710,0.172,-0.641,0.02
11/26/2023 22:35:09.720,0.281,-0.219,-0.121
11/26/2023 22:35:09.730,0.555,0.121,-0.109
11/26/2023 22:35:09.740,0.672,0.41,-0.078
11/26/2023 22:35:09.750,0.547,0.641,-0.07
11/26/2023 22:35:09.760,0.332,0.84,-0.172
11/26/2023 22:35:09.770,0.105,1.027,-0.516
11/26/2023 22:35:09.780,-0.051,1.203,-0.945
11/26/2023 22:35:09.790,-0.129,1.094,-1.125
11/26/2023 22:35:09.800,0.023,0.848,-0.785
11/26/2023 22:35:09.810,0.219,0.527,-0.336
11/26/2023 22:35:09.820,0.207,0.129,-0.078
11/26/2023 22:35:09.830,0.098,-0.313,0.094
11/26/2023 22:35:09.840,0.059,-0.668,0.188
11/26/2023 22:35:09.850,0.098,-0.844,0.188
11/26/2023 22:35:09.860,0.121,-0.848,0.133
11/26/2023 22:35:09.870,0.074,-0.691,0.023
11/26/2023 22:35:09.880,0.008,-0.48,-0.09
11/26/2023 22:35:09.890,-0.016,-0.289,-0.141
11/26/2023 22:35:09.900,-0.02,-0.18,-0.105
11/26/2023 22:35:09.910,-0.047,-0.18,0.004
11/26/2023 22:35:09.920,-0.09,-0.207,0.117
11/26/2023 22:35:09.930,-0.121,-0.195,0.168
11/26/2023 22:35:09.940,-0.113,-0.117,0.156
11/26/2023 22:35:09.950,-0.102,-0.004,0.125
11/26/2023 22:35:09.960,-0.113,0.105,0.094
11/26/2023 22:35:09.970,-0.125,0.191,0.078
11/26/2023 22:35:09.980,-0.094,0.258,0.105
11/26/2023 22:35:09.990,-0.039,0.273,0.129
11/26/2023 22:35:10.000,0.008,0.27,0.133
11/26/2023 22:35:10.010,0.055,0.242,0.063
11/26/2023 22:35:10.020,0.074,0.191,-0.102
11/26/2023 22:35:10.030,0.137,0.043,-0.137
11/26/2023 22:35:10.040,0.145,-0.281,0.055
11/26/2023 22:35:10.050,0.07,-0.723,0.465
11/26/2023 22:35:10.060,0.047,-1.141,0.918
11/26/2023 22:35:10.070,0.082,-1.621,1.18
11/26/2023 22:35:10.080,0.074,-2.07,1.262
11/26/2023 22:35:10.090,0.223,-3.457,1.051
11/26/2023 22:35:10.100,0.711,-6.258,0.121
11/26/2023 22:35:10.110,1.68,-7.219,1.156
11/26/2023 22:35:10.120,1.75,-6.301,1.398
11/26/2023 22:35:10.130,0.449,-4.188,0.352
11/26/2023 22:35:10.140,-0.754,-2.391,-0.008
11/26/2023 22:35:10.150,-0.93,-2.254,0.246
11/26/2023 22:35:10.160,-0.691,-2.813,0.602
11/26/2023 22:35:10.170,-0.016,-3.125,0.891
11/26/2023 22:35:10.180,0.664,-3.031,0.754
11/26/2023 22:35:10.190,0.852,-2.563,0.484
11/26/2023 22:35:10.200,0.828,-1.887,0.297
11/26/2023 22:35:10.210,0.789,-1.141,0.25
11/26/2023 22:35:10.220,0.742,-0.438,0.246
11/26/2023 22:35:10.230,0.672,0.109,0.098
11/26/2023 22:35:10.240,0.535,0.465,-0.082
11/26/2023 22:35:10.250,0.305,0.594,-0.191
11/26/2023 22:35:10.260,0.137,0.625,-0.207
11/26/2023 22:35:10.270,0.027,0.672,-0.234
11/26/2023 22:35:10.280,0,0.762,-0.34
11/26/2023 22:35:10.290,-0.004,0.828,-0.582
11/26/2023 22:35:10.300,-0.035,0.863,-0.789
11/26/2023 22:35:10.310,-0.105,0.734,-0.723
11/26/2023 22:35:10.320,-0.016,0.438,-0.375
11/26/2023 22:35:10.330,0.031,-0.074,0.094
11/26/2023 22:35:10.340,0,-0.449,0.34
11/26/2023 22:35:10.350,-0.023,-0.672,0.387
11/26/2023 22:35:10.360,0.008,-0.664,0.285
11/26/2023 22:35:10.370,0.047,-0.52,0.152
11/26/2023 22:35:10.380,0.039,-0.367,0.031
11/26/2023 22:35:10.390,-0.008,-0.258,-0.035
11/26/2023 22:35:10.400,-0.098,-0.215,-0.047
11/26/2023 22:35:10.410,-0.191,-0.207,0
11/26/2023 22:35:10.420,-0.223,-0.188,0.07
11/26/2023 22:35:10.430,-0.188,-0.129,0.098
11/26/2023 22:35:10.440,-0.117,-0.051,0.066
11/26/2023 22:35:10.450,-0.051,0.035,-0.008
11/26/2023 22:35:10.460,0.016,0.109,-0.086
11/26/2023 22:35:10.470,0.059,0.156,-0.137
11/26/2023 22:35:10.480,0.082,0.18,-0.156
11/26/2023 22:35:10.490,0.102,0.168,-0.137
11/26/2023 22:35:10.500,0.152,0.137,-0.082
11/26/2023 22:35:10.510,0.23,0.047,-0.008
11/26/2023 22:35:10.520,0.258,-0.09,0.086
11/26/2023 22:35:10.530,0.172,-0.285,0.316
11/26/2023 22:35:10.540,0.078,-0.551,0.836
11/26/2023 22:35:10.550,0.012,-0.906,1.496
11/26/2023 22:35:10.560,0.031,-1.223,1.527
11/26/2023 22:35:10.570,-0.125,-1.758,0.754
11/26/2023 22:35:10.580,-0.246,-3.102,0.551
11/26/2023 22:35:10.590,0.129,-5.656,0.145
11/26/2023 22:35:10.600,0.984,-6.914,0.734
11/26/2023 22:35:10.610,1.469,-5.961,1.234
11/26/2023 22:35:10.620,1.176,-3.945,0.973
11/26/2023 22:35:10.630,0.586,-2.234,0.832
11/26/2023 22:35:10.640,0.41,-2.547,1.172
11/26/2023 22:35:10.650,0.113,-3.117,1.191
11/26/2023 22:35:10.660,-0.184,-3.07,0.957
11/26/2023 22:35:10.670,-0.188,-2.617,0.695
11/26/2023 22:35:10.680,-0.098,-2.094,0.492
11/26/2023 22:35:10.690,-0.129,-1.801,0.355
11/26/2023 22:35:10.700,-0.188,-1.473,0.145
11/26/2023 22:35:10.710,-0.066,-0.988,-0.012
11/26/2023 22:35:10.720,0.199,-0.527,-0.059
11/26/2023 22:35:10.730,0.391,-0.184,-0.055
11/26/2023 22:35:10.740,0.453,-0.02,-0.055
11/26/2023 22:35:10.750,0.449,0.113,-0.043
11/26/2023 22:35:10.760,0.422,0.25,-0.027
11/26/2023 22:35:10.770,0.332,0.445,-0.055
11/26/2023 22:35:10.780,0.172,0.719,-0.125
11/26/2023 22:35:10.790,0.023,0.809,-0.254
11/26/2023 22:35:10.800,-0.016,0.738,-0.371
11/26/2023 22:35:10.810,0.023,0.563,-0.402
11/26/2023 22:35:10.820,0.102,0.301,-0.324
11/26/2023 22:35:10.830,0.219,0.086,-0.184
11/26/2023 22:35:10.840,0.285,-0.125,-0.02
11/26/2023 22:35:10.850,0.254,-0.336,0.09
11/26/2023 22:35:10.860,0.18,-0.473,0.113
11/26/2023 22:35:10.870,0.105,-0.508,0.082
11/26/2023 22:35:10.880,0.074,-0.441,0.059
11/26/2023 22:35:10.890,0.063,-0.32,0.035
11/26/2023 22:35:10.900,0.043,-0.203,0.027
11/26/2023 22:35:10.910,0.004,-0.125,0.047
11/26/2023 22:35:10.920,-0.031,-0.09,0.094
11/26/2023 22:35:10.930,-0.074,-0.066,0.148
11/26/2023 22:35:10.940,-0.098,-0.035,0.168
11/26/2023 22:35:10.950,-0.121,0.023,0.129
11/26/2023 22:35:10.960,-0.156,0.102,0.031
11/26/2023 22:35:10.970,-0.184,0.168,-0.086
11/26/2023 22:35:10.980,-0.184,0.195,-0.176
11/26/2023 22:35:10.990,-0.164,0.172,-0.211
11/26/2023 22:35:11.000,-0.137,0.121,-0.184
11/26/2023 22:35:11.010,-0.117,0.078,-0.141
11/26/2023 22:35:11.020,-0.07,0.039,-0.055
11/26/2023 22:35:11.030,-0.016,-0.098,0.191
11/26/2023 22:35:11.040,-0.027,-0.34,0.637
11/26/2023 22:35:11.050,-0.023,-0.684,1.215
11/26/2023 22:35:11.060,-0.066,-1.16,1.328
11/26/2023 22:35:11.070,0.148,-1.785,0.758
11/26/2023 22:35:11.080,0.434,-3.813,0.926
11/26/2023 22:35:11.090,1.129,-6.367,0.387
11/26/2023 22:35:11.100,2.18,-7.102,0.781
11/26/2023 22:35:11.110,2.652,-5.836,1.203
11/26/2023 22:35:11.120,1.742,-4.234,1.012
11/26/2023 22:35:11.130,0.281,-3.32,0.738
11/26/2023 22:35:11.140,-0.637,-3.195,0.516
11/26/2023 22:35:11.150,-0.715,-3.223,0.57
11/26/2023 22:35:11.160,-0.344,-3.145,0.848
11/26/2023 22:35:11.170,0.047,-2.828,0.852
11/26/2023 22:35:11.180,0.234,-2.32,0.629
11/26/2023 22:35:11.190,0.34,-1.746,0.418
11/26/2023 22:35:11.200,0.484,-1.172,0.27
11/26/2023 22:35:11.210,0.602,-0.633,0.176
11/26/2023 22:35:11.220,0.645,-0.141,0.031
11/26/2023 22:35:11.230,0.602,0.25,-0.141
11/26/2023 22:35:11.240,0.555,0.586,-0.164
11/26/2023 22:35:11.250,0.496,0.84,-0.133
11/26/2023 22:35:11.260,0.363,1.008,-0.156
11/26/2023 22:35:11.270,0.109,1.051,-0.359
11/26/2023 22:35:11.280,-0.102,0.973,-0.672
11/26/2023 22:35:11.290,-0.16,0.828,-0.813
11/26/2023 22:35:11.300,-0.129,0.539,-0.641
11/26/2023 22:35:11.310,-0.121,0.191,-0.414
11/26/2023 22:35:11.320,-0.086,-0.035,-0.203
11/26/2023 22:35:11.330,0.008,-0.246,0.023
11/26/2023 22:35:11.340,0.082,-0.453,0.109
11/26/2023 22:35:11.350,0.168,-0.578,0.109
11/26/2023 22:35:11.360,0.188,-0.68,0.102
11/26/2023 22:35:11.370,0.148,-0.711,0.094
11/26/2023 22:35:11.380,0.086,-0.652,0.074
11/26/2023 22:35:11.390,0.039,-0.523,0.074
11/26/2023 22:35:11.400,-0.016,-0.332,0.09
11/26/2023 22:35:11.410,-0.109,-0.16,0.082
11/26/2023 22:35:11.420,-0.152,-0.039,0.051
11/26/2023 22:35:11.430,-0.109,0.051,0.02
11/26/2023 22:35:11.440,-0.047,0.098,-0.004
11/26/2023 22:35:11.450,-0.02,0.121,-0.031
11/26/2023 22:35:11.460,0.008,0.141,-0.035
11/26/2023 22:35:11.470,0.031,0.18,-0.059
11/26/2023 22:35:11.480,0.043,0.234,-0.082
11/26/2023 22:35:11.490,0.039,0.266,-0.078
11/26/2023 22:35:11.500,0.039,0.277,-0.039
11/26/2023 22:35:11.510,0.051,0.238,0.027
11/26/2023 22:35:11.520,0.086,0.18,-0.016
11/26/2023 22:35:11.530,0.223,0.035,-0.156
11/26/2023 22:35:11.540,0.316,-0.168,-0.016
11/26/2023 22:35:11.550,0.25,-0.445,0.43
11/26/2023 22:35:11.560,0.262,-0.719,1.012
11/26/2023 22:35:11.570,0.238,-1.039,1.379
11/26/2023 22:35:11.580,0.234,-1.621,1.375
11/26/2023 22:35:11.590,0.273,-2.945,1.844
11/26/2023 22:35:11.600,0.41,-4.965,1.352
11/26/2023 22:35:11.610,0.688,-6.289,0.406
11/26/2023 22:35:11.620,1.137,-5.945,0.66
11/26/2023 22:35:11.630,1.09,-4.723,1.008
11/26/2023 22:35:11.640,0.379,-3.52,0.891
11/26/2023 22:35:11.650,-0.277,-2.934,0.676
11/26/2023 22:35:11.660,-0.137,-2.988,0.945
11/26/2023 22:35:11.670,0.383,-3.203,1.145
11/26/2023 22:35:11.680,0.66,-3.145,0.918
11/26/2023 22:35:11.690,0.75,-2.773,0.66
11/26/2023 22:35:11.700,0.672,-2.191,0.492
11/26/2023 22:35:11.710,0.48,-1.539,0.402
11/26/2023 22:35:11.720,0.359,-0.941,0.324
11/26/2023 22:35:11.730,0.344,-0.438,0.184
11/26/2023 22:35:11.740,0.367,-0.043,0.008
11/26/2023 22:35:11.750,0.402,0.238,-0.188
11/26/2023 22:35:11.760,0.41,0.531,-0.301
11/26/2023 22:35:11.770,0.234,0.801,-0.344
11/26/2023 22:35:11.780,0.039,1.012,-0.418
11/26/2023 22:35:11.790,0.008,1.059,-0.508
11/26/2023 22:35:11.800,0.035,0.945,-0.578
11/26/2023 22:35:11.810,0.031,0.703,-0.52
11/26/2023 22:35:11.820,0.012,0.434,-0.355
11/26/2023 22:35:11.830,0.043,0.195,-0.168
11/26/2023 22:35:11.840,0.137,-0.035,0.039
11/26/2023 22:35:11.850,0.184,-0.262,0.176
11/26/2023 22:35:11.860,0.156,-0.484,0.223
11/26/2023 22:35:11.870,0.141,-0.574,0.188
11/26/2023 22:35:11.880,0.16,-0.551,0.133
11/26/2023 22:35:11.890,0.148,-0.473,0.055
11/26/2023 22:35:11.900,0.078,-0.387,-0.023
11/26/2023 22:35:11.910,-0.004,-0.309,-0.035
11/26/2023 22:35:11.920,-0.059,-0.234,0.035
11/26/2023 22:35:11.930,-0.09,-0.156,0.098
11/26/2023 22:35:11.940,-0.113,-0.059,0.129
11/26/2023 22:35:11.950,-0.102,0.043,0.137
11/26/2023 22:35:11.960,-0.109,0.125,0.117
11/26/2023 22:35:11.970,-0.129,0.191,0.078
11/26/2023 22:35:11.980,-0.133,0.234,0.043
11/26/2023 22:35:11.990,-0.117,0.227,-0.004
11/26/2023 22:35:12.000,-0.094,0.223,-0.066
11/26/2023 22:35:12.010,-0.039,0.207,-0.109
11/26/2023 22:35:12.020,-0.008,0.199,-0.145
11/26/2023 22:35:12.030,0.027,0.152,-0.164
11/26/2023 22:35:12.040,0.086,0.055,-0.176
11/26/2023 22:35:12.050,0.105,-0.148,-0.086
11/26/2023 22:35:12.060,0.082,-0.43,0.203
11/26/2023 22:35:12.070,0.09,-0.785,0.711
11/26/2023 22:35:12.080,0.109,-1.184,1.254
11/26/2023 22:35:12.090,0.137,-1.504,1.211
11/26/2023 22:35:12.100,0.113,-1.977,0.848
11/26/2023 22:35:12.110,0.297,-4.313,0.195
11/26/2023 22:35:12.120,1.504,-7.371,0.094
11/26/2023 22:35:12.130,2.324,-6.934,1.18
11/26/2023 22:35:12.140,1.82,-5.34,0.789
11/26/2023 22:35:12.150,1.18,-3.805,0.297
11/26/2023 22:35:12.160,0.398,-3.105,0.281
11/26/2023 22:35:12.170,-0.242,-3.32,0.363
11/26/2023 22:35:12.180,-0.363,-3.5,0.613
11/26/2023 22:35:12.190,-0.02,-3.391,0.961
11/26/2023 22:35:12.200,0.34,-2.945,0.953
11/26/2023 22:35:12.210,0.453,-2.375,0.703
11/26/2023 22:35:12.220,0.375,-1.828,0.441
11/26/2023 22:35:12.230,0.277,-1.344,0.281
11/26/2023 22:35:12.240,0.246,-0.91,0.145
11/26/2023 22:35:12.250,0.324,-0.508,0
11/26/2023 22:35:12.260,0.504,-0.133,-0.102
11/26/2023 22:35:12.270,0.621,0.191,-0.168
11/26/2023 22:35:12.280,0.613,0.504,-0.16
11/26/2023 22:35:12.290,0.43,0.824,-0.113
11/26/2023 22:35:12.300,0.207,1.145,-0.25
11/26/2023 22:35:12.310,0.125,1.34,-0.605
11/26/2023 22:35:12.320,0.094,1.234,-0.863
11/26/2023 22:35:12.330,-0.016,0.848,-0.852
11/26/2023 22:35:12.340,-0.07,0.418,-0.598
11/26/2023 22:35:12.350,0.078,0.094,-0.188
11/26/2023 22:35:12.360,0.203,-0.238,0.18
11/26/2023 22:35:12.370,0.199,-0.484,0.289
11/26/2023 22:35:12.380,0.105,-0.621,0.234
11/26/2023 22:35:12.390,0.059,-0.582,0.133
11/26/2023 22:35:12.400,0.043,-0.5,0.051
11/26/2023 22:35:12.410,0.047,-0.406,0.02
11/26/2023 22:35:12.420,0.043,-0.289,0.031
11/26/2023 22:35:12.430,0.016,-0.164,0.07
11/26/2023 22:35:12.440,-0.059,-0.082,0.121
11/26/2023 22:35:12.450,-0.117,-0.035,0.172
11/26/2023 22:35:12.460,-0.152,-0.012,0.188
11/26/2023 22:35:12.470,-0.168,0.035,0.141
11/26/2023 22:35:12.480,-0.188,0.109,0.047
11/26/2023 22:35:12.490,-0.203,0.188,-0.047
11/26/2023 22:35:12.500,-0.223,0.242,-0.121
11/26/2023 22:35:12.510,-0.184,0.258,-0.164
11/26/2023 22:35:12.520,-0.133,0.211,-0.184
11/26/2023 22:35:12.530,-0.102,0.129,-0.188
11/26/2023 22:35:12.540,-0.055,0.051,-0.168
11/26/2023 22:35:12.550,0.012,-0.035,-0.125
11/26/2023 22:35:12.560,0.105,-0.113,-0.082
11/26/2023 22:35:12.570,0.195,-0.18,-0.094
11/26/2023 22:35:12.580,0.23,-0.238,-0.117
11/26/2023 22:35:12.590,0.328,-0.313,-0.117
11/26/2023 22:35:12.600,0.414,-0.508,0.168
11/26/2023 22:35:12.610,0.473,-0.898,0.766
11/26/2023 22:35:12.620,0.566,-1.297,0.973
11/26/2023 22:35:12.630,0.535,-1.773,0.793
11/26/2023 22:35:12.640,0.414,-3.148,0.512
11/26/2023 22:35:12.650,1.605,-5.793,0.141
11/26/2023 22:35:12.660,2.465,-7.219,0.406
11/26/2023 22:35:12.670,2.094,-6.316,1.008
11/26/2023 22:35:12.680,1.52,-4.641,1.004
11/26/2023 22:35:12.690,0.813,-2.938,0.457
11/26/2023 22:35:12.700,0.156,-2.324,0.203
11/26/2023 22:35:12.710,-0.184,-2.66,0.383
11/26/2023 22:35:12.720,-0.094,-2.941,0.535
11/26/2023 22:35:12.730,0.281,-2.988,0.727
11/26/2023 22:35:12.740,0.555,-2.828,0.609
11/26/2023 22:35:12.750,0.574,-2.469,0.289
11/26/2023 22:35:12.760,0.484,-1.934,0.047
11/26/2023 22:35:12.770,0.449,-1.328,-0.078
11/26/2023 22:35:12.780,0.512,-0.754,-0.066
11/26/2023 22:35:12.790,0.555,-0.254,-0.078
11/26/2023 22:35:12.800,0.547,0.172,-0.176
11/26/2023 22:35:12.810,0.535,0.559,-0.223
11/26/2023 22:35:12.820,0.457,0.914,-0.172
11/26/2023 22:35:12.830,0.281,1.168,-0.203
11/26/2023 22:35:12.840,0.125,1.277,-0.461
11/26/2023 22:35:12.850,0.051,1.168,-0.797
11/26/2023 22:35:12.860,0.066,0.898,-0.852
11/26/2023 22:35:12.870,0.125,0.574,-0.617
11/26/2023 22:35:12.880,0.137,0.223,-0.258
11/26/2023 22:35:12.890,0.047,-0.188,0.074
11/26/2023 22:35:12.900,-0.016,-0.523,0.281
11/26/2023 22:35:12.910,-0.02,-0.707,0.344
11/26/2023 22:35:12.920,-0.074,-0.688,0.242
11/26/2023 22:35:12.930,-0.145,-0.586,0.105
11/26/2023 22:35:12.940,-0.207,-0.449,0.039
11/26/2023 22:35:12.950,-0.289,-0.348,0.039
11/26/2023 22:35:12.960,-0.391,-0.293,0.094
11/26/2023 22:35:12.970,-0.465,-0.234,0.168
11/26/2023 22:35:12.980,-0.465,-0.125,0.219
11/26/2023 22:35:12.990,-0.398,0,0.195
11/26/2023 22:35:13.000,-0.324,0.109,0.082
11/26/2023 22:35:13.010,-0.195,0.191,-0.027
11/26/2023 22:35:13.020,-0.012,0.266,-0.094
11/26/2023 22:35:13.030,0.168,0.285,-0.184
11/26/2023 22:35:13.040,0.352,0.234,-0.305
11/26/2023 22:35:13.050,0.516,0.125,-0.387
11/26/2023 22:35:13.060,0.598,0.023,-0.359
11/26/2023 22:35:13.070,0.602,0.008,-0.23
11/26/2023 22:35:13.080,0.469,0.016,-0.066
11/26/2023 22:35:13.090,0.211,-0.043,0.105
11/26/2023 22:35:13.100,0.102,-0.129,0.246
11/26/2023 22:35:13.110,0.18,-0.207,0.402
11/26/2023 22:35:13.120,0.145,-0.387,0.676
11/26/2023 22:35:13.130,0.059,-0.621,1.031
11/26/2023 22:35:13.140,0.109,-0.926,0.977
11/26/2023 22:35:13.150,0.047,-1.578,0.809
11/26/2023 22:35:13.160,0.043,-3.543,1.137
11/26/2023 22:35:13.170,1.02,-6.641,0.063
11/26/2023 22:35:13.180,2.109,-7.785,0.715
11/26/2023 22:35:13.190,2.129,-6.582,1.203
11/26/2023 22:35:13.200,1.281,-4.289,1.191
11/26/2023 22:35:13.210,-0.051,-2.293,0.621
11/26/2023 22:35:13.220,-0.715,-2.027,0.547
11/26/2023 22:35:13.230,-0.445,-2.613,0.949
11/26/2023 22:35:13.240,0.23,-3.227,1.191
11/26/2023 22:35:13.250,0.59,-3.395,1.078
11/26/2023 22:35:13.260,0.598,-2.941,0.738
11/26/2023 22:35:13.270,0.488,-2.219,0.379
11/26/2023 22:35:13.280,0.406,-1.461,0.105
11/26/2023 22:35:13.290,0.449,-0.801,-0.086
11/26/2023 22:35:13.300,0.527,-0.309,-0.164
11/26/2023 22:35:13.310,0.488,0.027,-0.172
11/26/2023 22:35:13.320,0.367,0.316,-0.18
11/26/2023 22:35:13.330,0.238,0.598,-0.184
11/26/2023 22:35:13.340,0.16,0.898,-0.172
11/26/2023 22:35:13.350,0.117,1.152,-0.305
11/26/2023 22:35:13.360,0.059,1.219,-0.652
11/26/2023 22:35:13.370,0.031,1.117,-0.918
11/26/2023 22:35:13.380,0.027,0.883,-0.836
11/26/2023 22:35:13.390,0.059,0.535,-0.504
11/26/2023 22:35:13.400,0.148,0.086,-0.004
11/26/2023 22:35:13.410,0.242,-0.379,0.32
11/26/2023 22:35:13.420,0.262,-0.691,0.359
11/26/2023 22:35:13.430,0.195,-0.777,0.203
11/26/2023 22:35:13.440,0.109,-0.664,0.023
11/26/2023 22:35:13.450,0.055,-0.496,-0.094
11/26/2023 22:35:13.460,0.023,-0.395,-0.102
11/26/2023 22:35:13.470,-0.012,-0.383,-0.031
11/26/2023 22:35:13.480,-0.063,-0.395,0.055
11/26/2023 22:35:13.490,-0.109,-0.375,0.105
11/26/2023 22:35:13.500,-0.145,-0.273,0.074
11/26/2023 22:35:13.510,-0.117,-0.125,0.047
11/26/2023 22:35:13.520,-0.129,0,0
11/26/2023 22:35:13.530,-0.117,0.098,-0.059
11/26/2023 22:35:13.540,-0.113,0.164,-0.113
11/26/2023 22:35:13.550,-0.09,0.199,-0.133
11/26/2023 22:35:13.560,-0.059,0.211,-0.141
11/26/2023 22:35:13.570,-0.027,0.211,-0.133
11/26/2023 22:35:13.580,0.031,0.199,-0.129
11/26/2023 22:35:13.590,0.125,0.191,-0.102
11/26/2023 22:35:13.600,0.16,0.16,-0.109
11/26/2023 22:35:13.610,0.219,0.117,-0.145
11/26/2023 22:35:13.620,0.305,0.023,-0.043
11/26/2023 22:35:13.630,0.313,-0.23,0.367
11/26/2023 22:35:13.640,0.25,-0.691,1.129
11/26/2023 22:35:13.650,0.25,-1.148,1.691
11/26/2023 22:35:13.660,0.457,-1.387,1.301
11/26/2023 22:35:13.670,0.781,-2.039,0.984
11/26/2023 22:35:13.680,1.195,-3.91,1.719
11/26/2023 22:35:13.690,1.676,-6.082,1.191
11/26/2023 22:35:13.700,1.594,-6.953,0.551
11/26/2023 22:35:13.710,1.102,-6.387,0.793
11/26/2023 22:35:13.720,0.414,-5.039,1.004
11/26/2023 22:35:13.730,-0.477,-3.5,0.613
11/26/2023 22:35:13.740,-0.895,-2.742,0.18
11/26/2023 22:35:13.750,-0.395,-2.781,0.563
11/26/2023 22:35:13.760,0.355,-2.941,1.055
11/26/2023 22:35:13.770,0.57,-2.703,0.883
11/26/2023 22:35:13.780,0.445,-2.133,0.496
11/26/2023 22:35:13.790,0.43,-1.441,0.258
11/26/2023 22:35:13.800,0.563,-0.793,0.164
11/26/2023 22:35:13.810,0.699,-0.277,0.059
11/26/2023 22:35:13.820,0.813,0.129,-0.004
11/26/2023 22:35:13.830,0.855,0.5,-0.055
11/26/2023 22:35:13.840,0.629,0.82,-0.141
11/26/2023 22:35:13.850,0.168,1.059,-0.309
11/26/2023 22:35:13.860,-0.156,1.211,-0.543
11/26/2023 22:35:13.870,-0.188,1.207,-0.75
11/26/2023 22:35:13.880,-0.133,0.969,-0.801
11/26/2023 22:35:13.890,-0.07,0.613,-0.652
11/26/2023 22:35:13.900,0.063,0.242,-0.313
11/26/2023 22:35:13.910,0.133,-0.176,0.004
11/26/2023 22:35:13.920,0.125,-0.527,0.168
11/26/2023 22:35:13.930,0.09,-0.723,0.211
11/26/2023 22:35:13.940,0.117,-0.73,0.176
11/26/2023 22:35:13.950,0.176,-0.59,0.113
11/26/2023 22:35:13.960,0.168,-0.457,0.055
11/26/2023 22:35:13.970,0.152,-0.305,0.008
11/26/2023 22:35:13.980,0.098,-0.191,0.008
11/26/2023 22:35:13.990,0.066,-0.109,0.078
11/26/2023 22:35:14.000,-0.02,-0.043,0.141
11/26/2023 22:35:14.010,-0.078,0.035,0.16
11/26/2023 22:35:14.020,-0.148,0.117,0.129
11/26/2023 22:35:14.030,-0.168,0.164,0.078
11/26/2023 22:35:14.040,-0.168,0.176,0.023
11/26/2023 22:35:14.050,-0.152,0.184,-0.027
11/26/2023 22:35:14.060,-0.137,0.148,-0.035
11/26/2023 22:35:14.070,-0.094,0.086,-0.055
11/26/2023 22:35:14.080,-0.012,0.066,-0.078
11/26/2023 22:35:14.090,0.07,0.047,-0.105
11/26/2023 22:35:14.100,0.109,0.004,-0.145
11/26/2023 22:35:14.110,0.152,-0.031,-0.18
11/26/2023 22:35:14.120,0.238,-0.086,-0.184
11/26/2023 22:35:14.130,0.309,-0.188,-0.113
11/26/2023 22:35:14.140,0.238,-0.426,0.066
11/26/2023 22:35:14.150,0.168,-0.719,0.313
11/26/2023 22:35:14.160,0.219,-0.953,0.555
11/26/2023 22:35:14.170,0.215,-1.242,0.781
11/26/2023 22:35:14.180,0.059,-1.652,0.871
11/26/2023 22:35:14.190,-0.203,-2.512,1.086
11/26/2023 22:35:14.200,0.328,-4.184,1.441
11/26/2023 22:35:14.210,1.219,-6.418,0.469
11/26/2023 22:35:14.220,1.66,-7.063,0.684
11/26/2023 22:35:14.230,1.387,-5.945,1.324
11/26/2023 22:35:14.240,0.738,-3.949,1.332
11/26/2023 22:35:14.250,-0.055,-2.41,0.695
11/26/2023 22:35:14.260,-0.379,-2.336,0.645
11/26/2023 22:35:14.270,-0.152,-2.891,0.902
11/26/2023 22:35:14.280,0.297,-3.238,0.992
11/26/2023 22:35:14.290,0.504,-3.188,0.836
11/26/2023 22:35:14.300,0.496,-2.816,0.582
11/26/2023 22:35:14.310,0.371,-2.211,0.316
11/26/2023 22:35:14.320,0.305,-1.484,0.07
11/26/2023 22:35:14.330,0.402,-0.789,-0.109
11/26/2023 22:35:14.340,0.504,-0.211,-0.195
11/26/2023 22:35:14.350,0.516,0.25,-0.184
11/26/2023 22:35:14.360,0.488,0.609,-0.117
11/26/2023 22:35:14.370,0.391,0.938,-0.109
11/26/2023 22:35:14.380,0.219,1.223,-0.203
11/26/2023 22:35:14.390,0.027,1.344,-0.484
11/26/2023 22:35:14.400,-0.023,1.266,-0.828
11/26/2023 22:35:14.410,0.051,1.031,-0.957
11/26/2023 22:35:14.420,0.145,0.68,-0.781
11/26/2023 22:35:14.430,0.23,0.273,-0.398
11/26/2023 22:35:14.440,0.238,-0.203,-0.004
11/26/2023 22:35:14.450,0.207,-0.598,0.172
11/26/2023 22:35:14.460,0.152,-0.82,0.16
11/26/2023 22:35:14.470,0.188,-0.777,0.078
11/26/2023 22:35:14.480,0.203,-0.656,0.008
11/26/2023 22:35:14.490,0.137,-0.559,-0.047
11/26/2023 22:35:14.500,0.031,-0.484,-0.059
11/26/2023 22:35:14.510,-0.027,-0.422,-0.016
11/26/2023 22:35:14.520,-0.039,-0.328,0.082
11/26/2023 22:35:14.530,-0.059,-0.203,0.168
11/26/2023 22:35:14.540,-0.109,-0.043,0.168
11/26/2023 22:35:14.550,-0.145,0.109,0.105
11/26/2023 22:35:14.560,-0.121,0.223,0.047
11/26/2023 22:35:14.570,-0.086,0.289,-0.008
11/26/2023 22:35:14.580,-0.074,0.305,-0.063
11/26/2023 22:35:14.590,-0.09,0.297,-0.063
11/26/2023 22:35:14.600,-0.094,0.277,-0.023
11/26/2023 22:35:14.610,-0.113,0.246,0.004
11/26/2023 22:35:14.620,-0.133,0.207,-0.012
11/26/2023 22:35:14.630,-0.16,0.188,-0.059
11/26/2023 22:35:14.640,-0.16,0.164,-0.152
11/26/2023 22:35:14.650,-0.07,0.109,-0.258
11/26/2023 22:35:14.660,0.078,-0.082,-0.188
11/26/2023 22:35:14.670,0.129,-0.395,0.117
11/26/2023 22:35:14.680,0.145,-0.801,0.613
11/26/2023 22:35:14.690,0.191,-1.211,1.004
11/26/2023 22:35:14.700,0.238,-1.625,1.039
11/26/2023 22:35:14.710,-0.055,-2.266,0.961
11/26/2023 22:35:14.720,-0.129,-4.266,0.977
11/26/2023 22:35:14.730,1.355,-6.953,-0.016
11/26/2023 22:35:14.740,2.723,-7.594,0.266
11/26/2023 22:35:14.750,2.402,-6.426,0.848
11/26/2023 22:35:14.760,1.422,-4.465,0.879
11/26/2023 22:35:14.770,0.445,-2.523,0.203
11/26/2023 22:35:14.780,-0.164,-2.168,0.207
11/26/2023 22:35:14.790,-0.273,-2.754,0.496
11/26/2023 22:35:14.800,0.098,-3.262,0.77
11/26/2023 22:35:14.810,0.551,-3.277,0.773
11/26/2023 22:35:14.820,0.656,-2.781,0.516
11/26/2023 22:35:14.830,0.527,-1.98,0.273
11/26/2023 22:35:14.840,0.449,-1.098,0.07
11/26/2023 22:35:14.850,0.457,-0.34,-0.02
11/26/2023 22:35:14.860,0.496,0.273,-0.063
11/26/2023 22:35:14.870,0.488,0.668,-0.059
11/26/2023 22:35:14.880,0.328,0.945,-0.117
11/26/2023 22:35:14.890,0.105,1.164,-0.211
11/26/2023 22:35:14.900,-0.039,1.277,-0.5
11/26/2023 22:35:14.910,-0.117,1.211,-0.934
11/26/2023 22:35:14.920,-0.098,0.98,-1.117
11/26/2023 22:35:14.930,0.023,0.742,-0.91
11/26/2023 22:35:14.940,0.148,0.52,-0.551
11/26/2023 22:35:14.950,0.223,0.211,-0.125
11/26/2023 22:35:14.960,0.203,-0.246,0.203
11/26/2023 22:35:14.970,0.141,-0.719,0.352
11/26/2023 22:35:14.980,0.117,-0.973,0.324
11/26/2023 22:35:14.990,0.133,-0.871,0.211
11/26/2023 22:35:15.000,0.164,-0.605,0.121
11/26/2023 22:35:15.010,0.137,-0.438,0.078
11/26/2023 22:35:15.020,0.059,-0.328,0.074
11/26/2023 22:35:15.030,-0.039,-0.23,0.102
11/26/2023 22:35:15.040,-0.121,-0.133,0.121
11/26/2023 22:35:15.050,-0.164,-0.031,0.086
11/26/2023 22:35:15.060,-0.145,0.051,0.039
11/26/2023 22:35:15.070,-0.09,0.105,0.004
11/26/2023 22:35:15.080,-0.09,0.148,-0.059
11/26/2023 22:35:15.090,-0.129,0.172,-0.133
11/26/2023 22:35:15.100,-0.148,0.172,-0.164
11/26/2023 22:35:15.110,-0.133,0.156,-0.152
11/26/2023 22:35:15.120,-0.09,0.129,-0.121
11/26/2023 22:35:15.130,-0.023,0.102,-0.09
11/26/2023 22:35:15.140,0.07,0.066,-0.031
11/26/2023 22:35:15.150,0.105,0.027,-0.016
11/26/2023 22:35:15.160,0.094,-0.008,-0.09
11/26/2023 22:35:15.170,0.223,-0.066,-0.129
11/26/2023 22:35:15.180,0.426,-0.199,-0.008
11/26/2023 22:35:15.190,0.395,-0.457,0.281
11/26/2023 22:35:15.200,0.273,-0.789,0.652
11/26/2023 22:35:15.210,0.297,-1.125,0.984
11/26/2023 22:35:15.220,0.465,-1.605,0.848
11/26/2023 22:35:15.230,0.633,-2.859,1.137
11/26/2023 22:35:15.240,0.738,-5.395,0.488
11/26/2023 22:35:15.250,1.402,-6.766,0.414
11/26/2023 22:35:15.260,1.285,-6.535,0.453
11/26/2023 22:35:15.270,0.793,-5.609,0.563
11/26/2023 22:35:15.280,0.563,-3.871,0.555
11/26/2023 22:35:15.290,-0.082,-2.68,0.168
11/26/2023 22:35:15.300,-0.734,-2.887,0.059
11/26/2023 22:35:15.310,-0.699,-3,0.238
11/26/2023 22:35:15.320,-0.109,-3.02,0.531
11/26/2023 22:35:15.330,0.461,-2.828,0.555
11/26/2023 22:35:15.340,0.621,-2.371,0.352
11/26/2023 22:35:15.350,0.527,-1.727,0.203
11/26/2023 22:35:15.360,0.465,-1.012,0.152
11/26/2023 22:35:15.370,0.469,-0.367,0.156
11/26/2023 22:35:15.380,0.449,0.141,0.082
11/26/2023 22:35:15.390,0.434,0.516,-0.09
11/26/2023 22:35:15.400,0.395,0.781,-0.203
11/26/2023 22:35:15.410,0.238,0.934,-0.191
11/26/2023 22:35:15.420,0.023,1.016,-0.207
11/26/2023 22:35:15.430,-0.117,1.012,-0.422
11/26/2023 22:35:15.440,-0.117,0.922,-0.684
11/26/2023 22:35:15.450,-0.027,0.742,-0.758
11/26/2023 22:35:15.460,0.086,0.484,-0.66
11/26/2023 22:35:15.470,0.191,0.156,-0.375
11/26/2023 22:35:15.480,0.203,-0.23,0.012
11/26/2023 22:35:15.490,0.121,-0.629,0.328
11/26/2023 22:35:15.500,0.031,-0.898,0.48
11/26/2023 22:35:15.510,0.027,-0.898,0.465
11/26/2023 22:35:15.520,0.016,-0.719,0.328
11/26/2023 22:35:15.530,-0.02,-0.473,0.172
11/26/2023 22:35:15.540,-0.059,-0.254,0.059
11/26/2023 22:35:15.550,-0.082,-0.082,0.008
11/26/2023 22:35:15.560,-0.09,0.012,0.039
11/26/2023 22:35:15.570,-0.07,0.016,0.086
11/26/2023 22:35:15.580,-0.012,-0.004,0.059
11/26/2023 22:35:15.590,0.051,0,-0.031
11/26/2023 22:35:15.600,0.082,0.031,-0.141
11/26/2023 22:35:15.610,0.09,0.082,-0.191
11/26/2023 22:35:15.620,0.07,0.109,-0.184
11/26/2023 22:35:15.630,0.043,0.117,-0.148
11/26/2023 22:35:15.640,0.027,0.117,-0.113
11/26/2023 22:35:15.650,0.043,0.133,-0.113
11/26/2023 22:35:15.660,0.055,0.16,-0.172
11/26/2023 22:35:15.670,0.082,0.141,-0.207
11/26/2023 22:35:15.680,0.215,0.086,-0.141
11/26/2023 22:35:15.690,0.305,-0.027,0.016
11/26/2023 22:35:15.700,0.23,-0.215,0.313
11/26/2023 22:35:15.710,0.094,-0.559,0.809
11/26/2023 22:35:15.720,0.113,-0.977,1.184
11/26/2023 22:35:15.730,0.168,-1.398,0.922
11/26/2023 22:35:15.740,0.457,-2.52,0.922
11/26/2023 22:35:15.750,1.52,-6.016,0.27
11/26/2023 22:35:15.760,2.43,-7.898,0.66
11/26/2023 22:35:15.770,2.059,-6.875,0.934
11/26/2023 22:35:15.780,1.422,-4.563,1.02
11/26/2023 22:35:15.790,0.43,-2.773,0.859
11/26/2023 22:35:15.800,-0.344,-2.836,0.891
11/26/2023 22:35:15.810,-0.484,-3.176,0.801
11/26/2023 22:35:15.820,-0.254,-3.383,0.797
11/26/2023 22:35:15.830,-0.027,-3.098,0.605
11/26/2023 22:35:15.840,0.117,-2.426,0.313
11/26/2023 22:35:15.850,0.227,-1.719,0.059
11/26/2023 22:35:15.860,0.336,-1.195,-0.145
11/26/2023 22:35:15.870,0.461,-0.809,-0.152
11/26/2023 22:35:15.880,0.52,-0.48,-0.086
11/26/2023 22:35:15.890,0.465,-0.16,-0.086
11/26/2023 22:35:15.900,0.367,0.203,-0.117
11/26/2023 22:35:15.910,0.266,0.621,-0.051
11/26/2023 22:35:15.920,0.168,1.066,-0.07
11/26/2023 22:35:15.930,0.074,1.375,-0.422
11/26/2023 22:35:15.940,-0.035,1.398,-0.844
11/26/2023 22:35:15.950,-0.066,1.168,-0.91
11/26/2023 22:35:15.960,-0.004,0.734,-0.652
11/26/2023 22:35:15.970,0.145,0.203,-0.148
11/26/2023 22:35:15.980,0.254,-0.344,0.219
11/26/2023 22:35:15.990,0.273,-0.711,0.258
11/26/2023 22:35:16.000,0.23,-0.836,0.152
11/26/2023 22:35:16.010,0.172,-0.73,0.004
11/26/2023 22:35:16.020,0.117,-0.547,-0.113
11/26/2023 22:35:16.030,0.078,-0.395,-0.16
11/26/2023 22:35:16.040,0.063,-0.293,-0.121
11/26/2023 22:35:16.050,0.035,-0.234,-0.043
11/26/2023 22:35:16.060,0.004,-0.176,0.027
11/26/2023 22:35:16.070,-0.008,-0.094,0.074
11/26/2023 22:35:16.080,0.004,-0.008,0.066
11/26/2023 22:35:16.090,0.039,0.066,0.039
11/26/2023 22:35:16.100,0.074,0.113,0.016
11/26/2023 22:35:16.110,0.105,0.125,0.012
11/26/2023 22:35:16.120,0.098,0.125,-0.004
11/26/2023 22:35:16.130,0.055,0.129,-0.082
11/26/2023 22:35:16.140,0.066,0.148,-0.063
11/26/2023 22:35:16.150,0.086,0.148,-0.059
11/26/2023 22:35:16.160,0.098,0.133,-0.078
11/26/2023 22:35:16.170,0.109,0.141,-0.074
11/26/2023 22:35:16.180,0.098,0.129,-0.063
11/26/2023 22:35:16.190,0.16,0.105,-0.07
11/26/2023 22:35:16.200,0.078,-0.098,0.023
11/26/2023 22:35:16.210,-0.07,-0.465,0.496
11/26/2023 22:35:16.220,-0.172,-0.918,1.188
11/26/2023 22:35:16.230,-0.109,-1.324,1.512
11/26/2023 22:35:16.240,-0.188,-1.734,1.18
11/26/2023 22:35:16.250,-0.293,-2.906,0.66
11/26/2023 22:35:16.260,0.395,-5.063,0.445
11/26/2023 22:35:16.270,1.07,-6.156,0.445
11/26/2023 22:35:16.280,1.297,-5.754,1.223
11/26/2023 22:35:16.290,1.574,-4.395,1.531
11/26/2023 22:35:16.300,1.047,-3.266,1.121
11/26/2023 22:35:16.310,0.27,-3.129,0.766
11/26/2023 22:35:16.320,-0.215,-3.25,0.695
11/26/2023 22:35:16.330,-0.363,-3.102,0.773
11/26/2023 22:35:16.340,-0.219,-2.84,0.977
11/26/2023 22:35:16.350,-0.027,-2.574,0.906
11/26/2023 22:35:16.360,0.16,-2.191,0.578
11/26/2023 22:35:16.370,0.266,-1.688,0.227
11/26/2023 22:35:16.380,0.344,-1.195,0.023
11/26/2023 22:35:16.390,0.465,-0.777,-0.031
11/26/2023 22:35:16.400,0.563,-0.434,-0.016
11/26/2023 22:35:16.410,0.563,-0.113,0.035
11/26/2023 22:35:16.420,0.48,0.199,0.047
11/26/2023 22:35:16.430,0.355,0.477,-0.043
11/26/2023 22:35:16.440,0.219,0.719,-0.125
11/26/2023 22:35:16.450,0.117,0.918,-0.242
11/26/2023 22:35:16.460,0.074,0.996,-0.422
11/26/2023 22:35:16.470,0,0.859,-0.566
11/26/2023 22:35:16.480,-0.004,0.621,-0.547
11/26/2023 22:35:16.490,0.027,0.344,-0.387
11/26/2023 22:35:16.500,0.023,0.035,-0.148
11/26/2023 22:35:16.510,0.027,-0.242,0.074
11/26/2023 22:35:16.520,0.059,-0.418,0.199
11/26/2023 22:35:16.530,0.102,-0.488,0.207
11/26/2023 22:35:16.540,0.098,-0.5,0.137
11/26/2023 22:35:16.550,0.07,-0.441,0.059
11/26/2023 22:35:16.560,0.051,-0.348,0.02
11/26/2023 22:35:16.570,0.027,-0.262,0.02
11/26/2023 22:35:16.580,-0.008,-0.223,0.078
11/26/2023 22:35:16.590,0.004,-0.176,0.188
11/26/2023 22:35:16.600,0.02,-0.113,0.254
11/26/2023 22:35:16.610,0.008,-0.031,0.203
11/26/2023 22:35:16.620,-0.004,0.059,0.105
11/26/2023 22:35:16.630,0.02,0.137,0.02
11/26/2023 22:35:16.640,-0.027,0.164,-0.055
11/26/2023 22:35:16.650,-0.063,0.184,-0.09
11/26/2023 22:35:16.660,-0.098,0.188,-0.121
11/26/2023 22:35:16.670,-0.105,0.195,-0.137
11/26/2023 22:35:16.680,-0.078,0.184,-0.141
11/26/2023 22:35:16.690,0.031,0.074,-0.102
11/26/2023 22:35:16.700,0.16,-0.066,-0.074
11/26/2023 22:35:16.710,0.195,-0.281,0.066
11/26/2023 22:35:16.720,0.145,-0.535,0.32
11/26/2023 22:35:16.730,0.098,-0.813,0.664
11/26/2023 22:35:16.740,0.113,-1.359,1.02
11/26/2023 22:35:16.750,0.203,-1.934,0.848
11/26/2023 22:35:16.760,-0.016,-2.777,0.914
11/26/2023 22:35:16.770,0.258,-3.945,1.258
11/26/2023 22:35:16.780,2.039,-5.145,1.133
11/26/2023 22:35:16.790,2.738,-5.438,1.352
11/26/2023 22:35:16.800,1.758,-5.227,0.984
11/26/2023 22:35:16.810,0.891,-4.246,0.922
11/26/2023 22:35:16.820,0.305,-3.094,0.801
11/26/2023 22:35:16.830,0.031,-2.742,0.645
11/26/2023 22:35:16.840,0.234,-2.902,0.707
11/26/2023 22:35:16.850,0.535,-3.063,0.813
11/26/2023 22:35:16.860,0.504,-2.93,0.695
11/26/2023 22:35:16.870,0.285,-2.426,0.477
11/26/2023 22:35:16.880,0.141,-1.75,0.281
11/26/2023 22:35:16.890,0.172,-1.074,0.16
11/26/2023 22:35:16.900,0.277,-0.473,0.105
11/26/2023 22:35:16.910,0.383,0.012,0.078
11/26/2023 22:35:16.920,0.422,0.402,0.004
11/26/2023 22:35:16.930,0.395,0.719,-0.086
11/26/2023 22:35:16.940,0.289,0.969,-0.176
11/26/2023 22:35:16.950,0.188,1.102,-0.285
11/26/2023 22:35:16.960,0.137,1.117,-0.406
11/26/2023 22:35:16.970,0.125,1.012,-0.613
11/26/2023 22:35:16.980,0.152,0.672,-0.633
11/26/2023 22:35:16.990,0.184,0.168,-0.434
11/26/2023 22:35:17.000,0.211,-0.023,-0.27
11/26/2023 22:35:17.010,0.258,-0.039,-0.129
11/26/2023 22:35:17.020,0.277,-0.086,0
11/26/2023 22:35:17.030,0.289,-0.176,0.078
11/26/2023 22:35:17.040,0.25,-0.336,0.086
11/26/2023 22:35:17.050,0.156,-0.523,0.035
11/26/2023 22:35:17.060,0.039,-0.652,-0.023
11/26/2023 22:35:17.070,-0.039,-0.648,-0.043
11/26/2023 22:35:17.080,-0.102,-0.543,-0.031
11/26/2023 22:35:17.090,-0.176,-0.379,-0.02
11/26/2023 22:35:17.100,-0.25,-0.227,-0.02
11/26/2023 22:35:17.110,-0.273,-0.094,-0.004
11/26/2023 22:35:17.120,-0.211,0.004,0.031
11/26/2023 22:35:17.130,-0.156,0.055,0.023
11/26/2023 22:35:17.140,-0.121,0.098,0.02
11/26/2023 22:35:17.150,-0.082,0.129,0.031
11/26/2023 22:35:17.160,-0.055,0.156,0.004
11/26/2023 22:35:17.170,-0.023,0.188,-0.031
11/26/2023 22:35:17.180,0.031,0.211,-0.012
11/26/2023 22:35:17.190,0.07,0.199,0.02
11/26/2023 22:35:17.200,0.102,0.164,0.02
11/26/2023 22:35:17.210,0.16,0.113,0.004
11/26/2023 22:35:17.220,0.215,0,0.078
11/26/2023 22:35:17.230,0.215,-0.262,0.336
11/26/2023 22:35:17.240,0.188,-0.695,0.859
11/26/2023 22:35:17.250,0.121,-1.23,1.492
11/26/2023 22:35:17.260,0.141,-1.648,1.504
11/26/2023 22:35:17.270,0.004,-2.086,1.219
11/26/2023 22:35:17.280,0.168,-4.09,0.883
11/26/2023 22:35:17.290,0.805,-7.176,-0.398
11/26/2023 22:35:17.300,1.805,-8,0.359
11/26/2023 22:35:17.310,1.875,-7.227,1.02
11/26/2023 22:35:17.320,0.914,-4.633,0.813
11/26/2023 22:35:17.330,-0.363,-2.16,-0.156
11/26/2023 22:35:17.340,-0.605,-1.777,0.059
11/26/2023 22:35:17.350,-0.156,-2.645,0.895
11/26/2023 22:35:17.360,0.371,-3.395,1.242
11/26/2023 22:35:17.370,0.652,-3.355,0.957
11/26/2023 22:35:17.380,0.578,-2.691,0.484
11/26/2023 22:35:17.390,0.383,-1.785,0.035
11/26/2023 22:35:17.400,0.375,-0.938,-0.203
11/26/2023 22:35:17.410,0.523,-0.254,-0.203
11/26/2023 22:35:17.420,0.656,0.234,-0.172
11/26/2023 22:35:17.430,0.633,0.551,-0.23
11/26/2023 22:35:17.440,0.461,0.781,-0.332
11/26/2023 22:35:17.450,0.23,1,-0.371
11/26/2023 22:35:17.460,0.035,1.199,-0.449
11/26/2023 22:35:17.470,-0.035,1.297,-0.672
11/26/2023 22:35:17.480,-0.02,1.164,-0.871
11/26/2023 22:35:17.490,0.074,0.863,-0.84
11/26/2023 22:35:17.500,0.207,0.52,-0.547
11/26/2023 22:35:17.510,0.273,0.094,-0.129
11/26/2023 22:35:17.520,0.258,-0.344,0.156
11/26/2023 22:35:17.530,0.219,-0.699,0.25
11/26/2023 22:35:17.540,0.219,-0.879,0.227
11/26/2023 22:35:17.550,0.199,-0.871,0.137
11/26/2023 22:35:17.560,0.152,-0.711,0.047
11/26/2023 22:35:17.570,0.082,-0.523,-0.016
11/26/2023 22:35:17.580,0.008,-0.355,-0.004
11/26/2023 22:35:17.590,-0.063,-0.242,0.074
11/26/2023 22:35:17.600,-0.141,-0.16,0.148
11/26/2023 22:35:17.610,-0.223,-0.078,0.184
11/26/2023 22:35:17.620,-0.262,0.012,0.156
11/26/2023 22:35:17.630,-0.23,0.117,0.086
11/26/2023 22:35:17.640,-0.191,0.191,0.008
11/26/2023 22:35:17.650,-0.176,0.215,-0.063
11/26/2023 22:35:17.660,-0.145,0.188,-0.07
11/26/2023 22:35:17.670,-0.109,0.137,-0.059
11/26/2023 22:35:17.680,-0.082,0.102,-0.035
11/26/2023 22:35:17.690,-0.051,0.102,-0.016
11/26/2023 22:35:17.700,-0.023,0.16,-0.043
11/26/2023 22:35:17.710,-0.059,0.176,-0.086
11/26/2023 22:35:17.720,-0.066,0.148,-0.086
11/26/2023 22:35:17.730,-0.039,0.09,-0.117
11/26/2023 22:35:17.740,0.102,0.023,-0.207
11/26/2023 22:35:17.750,0.246,-0.09,-0.129
11/26/2023 22:35:17.760,0.289,-0.414,0.211
11/26/2023 22:35:17.770,0.398,-0.82,0.754
11/26/2023 22:35:17.780,0.539,-1.082,1.098
11/26/2023 22:35:17.790,0.719,-1.383,0.961
11/26/2023 22:35:17.800,0.914,-2.074,0.961
11/26/2023 22:35:17.810,1.383,-4.074,1.559
11/26/2023 22:35:17.820,1.84,-5.996,0.98
11/26/2023 22:35:17.830,1.754,-6.625,0.09
11/26/2023 22:35:17.840,1.289,-6.063,0.426
11/26/2023 22:35:17.850,0.91,-4.59,0.902
11/26/2023 22:35:17.860,0.242,-3.25,0.668
11/26/2023 22:35:17.870,-0.238,-2.973,0.484
11/26/2023 22:35:17.880,-0.055,-3.141,0.629
11/26/2023 22:35:17.890,0.418,-3.148,0.785
11/26/2023 22:35:17.900,0.648,-2.898,0.754
11/26/2023 22:35:17.910,0.609,-2.488,0.652
11/26/2023 22:35:17.920,0.445,-1.953,0.555
11/26/2023 22:35:17.930,0.316,-1.355,0.371
11/26/2023 22:35:17.940,0.262,-0.789,0.125
11/26/2023 22:35:17.950,0.238,-0.309,-0.051
11/26/2023 22:35:17.960,0.27,0.039,-0.164
11/26/2023 22:35:17.970,0.305,0.324,-0.266
11/26/2023 22:35:17.980,0.254,0.531,-0.309
11/26/2023 22:35:17.990,0.176,0.73,-0.199
11/26/2023 22:35:18.000,0.078,1.012,-0.137
11/26/2023 22:35:18.010,-0.02,1.211,-0.426
11/26/2023 22:35:18.020,-0.074,1.254,-0.895
11/26/2023 22:35:18.030,0.047,1.066,-1.023
11/26/2023 22:35:18.040,0.246,0.625,-0.75
11/26/2023 22:35:18.050,0.355,0.277,-0.398
11/26/2023 22:35:18.060,0.445,-0.207,0.008
11/26/2023 22:35:18.070,0.414,-0.531,0.199
11/26/2023 22:35:18.080,0.309,-0.805,0.246
11/26/2023 22:35:18.090,0.313,-0.938,0.246
11/26/2023 22:35:18.100,0.305,-0.891,0.211
11/26/2023 22:35:18.110,0.176,-0.715,0.098
11/26/2023 22:35:18.120,0.012,-0.449,0
11/26/2023 22:35:18.130,-0.156,-0.188,-0.043
11/26/2023 22:35:18.140,-0.34,-0.02,-0.012
11/26/2023 22:35:18.150,-0.461,0.023,0.078
11/26/2023 22:35:18.160,-0.445,0.02,0.168
11/26/2023 22:35:18.170,-0.344,0.031,0.191
11/26/2023 22:35:18.180,-0.258,0.074,0.137
11/26/2023 22:35:18.190,-0.207,0.137,0.035
11/26/2023 22:35:18.200,-0.164,0.191,-0.035
11/26/2023 22:35:18.210,-0.113,0.203,-0.047
11/26/2023 22:35:18.220,-0.043,0.16,-0.023
11/26/2023 22:35:18.230,0.043,0.102,0.008
11/26/2023 22:35:18.240,0.117,0.066,0.02
11/26/2023 22:35:18.250,0.152,0.059,0
11/26/2023 22:35:18.260,0.203,0.086,-0.055
11/26/2023 22:35:18.270,0.285,0.074,-0.105
11/26/2023 22:35:18.280,0.332,-0.012,0.023
11/26/2023 22:35:18.290,0.328,-0.27,0.398
11/26/2023 22:35:18.300,0.328,-0.652,1
11/26/2023 22:35:18.310,0.281,-1.023,1.457
11/26/2023 22:35:18.320,0.34,-1.309,1.223
11/26/2023 22:35:18.330,0.805,-1.98,1.32
11/26/2023 22:35:18.340,1.473,-4.691,1.613
11/26/2023 22:35:18.350,1.695,-7.668,-0.051
11/26/2023 22:35:18.360,2.094,-7.898,0.375
11/26/2023 22:35:18.370,1.578,-6.32,1.117
11/26/2023 22:35:18.380,0.453,-4.027,0.992
11/26/2023 22:35:18.390,-0.602,-2.641,0.293
11/26/2023 22:35:18.400,-0.691,-2.699,0.426
11/26/2023 22:35:18.410,-0.211,-3,0.957
11/26/2023 22:35:18.420,0.234,-3.055,1.152
11/26/2023 22:35:18.430,0.25,-2.723,0.863
11/26/2023 22:35:18.440,0.098,-2.012,0.43
11/26/2023 22:35:18.450,0.125,-1.242,0.125
11/26/2023 22:35:18.460,0.32,-0.586,-0.02
11/26/2023 22:35:18.470,0.484,-0.102,-0.059
11/26/2023 22:35:18.480,0.586,0.254,-0.137
11/26/2023 22:35:18.490,0.574,0.465,-0.324
11/26/2023 22:35:18.500,0.496,0.672,-0.43
11/26/2023 22:35:18.510,0.375,0.91,-0.395
11/26/2023 22:35:18.520,0.227,1.145,-0.438
11/26/2023 22:35:18.530,0.137,1.227,-0.723
11/26/2023 22:35:18.540,0.105,1.082,-0.934
11/26/2023 22:35:18.550,0.133,0.793,-0.871
11/26/2023 22:35:18.560,0.246,0.465,-0.496
11/26/2023 22:35:18.570,0.328,0.039,-0.047
11/26/2023 22:35:18.580,0.309,-0.43,0.242
11/26/2023 22:35:18.590,0.234,-0.832,0.344
11/26/2023 22:35:18.600,0.172,-1.008,0.297
11/26/2023 22:35:18.610,0.121,-0.93,0.176
11/26/2023 22:35:18.620,0.055,-0.672,0.07
11/26/2023 22:35:18.630,-0.031,-0.402,0.004
11/26/2023 22:35:18.640,-0.137,-0.195,-0.004
11/26/2023 22:35:18.650,-0.238,-0.063,0.059
11/26/2023 22:35:18.660,-0.324,-0.004,0.129
11/26/2023 22:35:18.670,-0.383,-0.004,0.145
11/26/2023 22:35:18.680,-0.371,0.008,0.125
11/26/2023 22:35:18.690,-0.313,0.055,0.063
11/26/2023 22:35:18.700,-0.246,0.121,-0.004
11/26/2023 22:35:18.710,-0.18,0.172,-0.043
11/26/2023 22:35:18.720,-0.109,0.199,-0.055
11/26/2023 22:35:18.730,-0.031,0.191,-0.074
11/26/2023 22:35:18.740,0.063,0.168,-0.09
11/26/2023 22:35:18.750,0.168,0.129,-0.102
11/26/2023 22:35:18.760,0.242,0.07,-0.094
11/26/2023 22:35:18.770,0.277,-0.004,-0.082
11/26/2023 22:35:18.780,0.332,-0.086,-0.105
11/26/2023 22:35:18.790,0.457,-0.152,-0.223
11/26/2023 22:35:18.800,0.566,-0.234,-0.273
11/26/2023 22:35:18.810,0.648,-0.477,-0.125
11/26/2023 22:35:18.820,0.703,-0.836,0.156
11/26/2023 22:35:18.830,0.707,-1.324,0.461
11/26/2023 22:35:18.840,0.762,-2.035,0.684
11/26/2023 22:35:18.850,0.75,-3.137,1.07
11/26/2023 22:35:18.860,1.016,-5.051,0.566
11/26/2023 22:35:18.870,1.121,-6.715,-0.078
11/26/2023 22:35:18.880,1.273,-6.508,0.488
11/26/2023 22:35:18.890,0.898,-4.367,0.762
11/26/2023 22:35:18.900,-0.375,-1.984,0.234
11/26/2023 22:35:18.910,-1.086,-0.59,-0.262
11/26/2023 22:35:18.920,-0.773,-0.41,-0.031
11/26/2023 22:35:18.930,-0.332,-0.961,0.449
11/26/2023 22:35:18.940,0.035,-1.453,0.664
11/26/2023 22:35:18.950,0.238,-1.695,0.609
11/26/2023 22:35:18.960,0.316,-1.766,0.418
11/26/2023 22:35:18.970,0.395,-1.699,0.289
11/26/2023 22:35:18.980,0.457,-1.469,0.258
11/26/2023 22:35:18.990,0.449,-1.129,0.309
11/26/2023 22:35:19.000,0.391,-0.715,0.324
11/26/2023 22:35:19.010,0.363,-0.285,0.332
11/26/2023 22:35:19.020,0.328,0.055,0.289
11/26/2023 22:35:19.030,0.27,0.172,0.242
11/26/2023 22:35:19.040,0.156,0.129,0.176
11/26/2023 22:35:19.050,0.02,0.023,0.07
11/26/2023 22:35:19.060,-0.07,-0.074,-0.023
11/26/2023 22:35:19.070,-0.102,-0.152,-0.063
11/26/2023 22:35:19.080,-0.063,-0.238,-0.086
11/26/2023 22:35:19.090,0.051,-0.328,-0.086
11/26/2023 22:35:19.100,0.148,-0.418,-0.098
11/26/2023 22:35:19.110,0.191,-0.512,-0.105
11/26/2023 22:35:19.120,0.191,-0.598,-0.117
11/26/2023 22:35:19.130,0.195,-0.691,-0.113
11/26/2023 22:35:19.140,0.215,-0.809,-0.074
11/26/2023 22:35:19.150,0.242,-0.953,0.004
11/26/2023 22:35:19.160,0.266,-1.117,0.082
11/26/2023 22:35:19.170,0.273,-1.281,0.152
11/26/2023 22:35:19.180,0.281,-1.43,0.234
11/26/2023 22:35:19.190,0.285,-1.531,0.301
11/26/2023 22:35:19.200,0.293,-1.574,0.34
11/26/2023 22:35:19.210,0.32,-1.559,0.375
11/26/2023 22:35:19.220,0.359,-1.461,0.395
11/26/2023 22:35:19.230,0.34,-1.316,0.391
11/26/2023 22:35:19.240,0.277,-1.16,0.359
11/26/2023 22:35:19.250,0.207,-1.023,0.348
11/26/2023 22:35:19.260,0.156,-0.91,0.332
11/26/2023 22:35:19.270,0.113,-0.82,0.313
11/26/2023 22:35:19.280,0.066,-0.758,0.293
11/26/2023 22:35:19.290,0.031,-0.723,0.262
11/26/2023 22:35:19.300,0.004,-0.711,0.223
11/26/2023 22:35:19.310,-0.016,-0.738,0.203
11/26/2023 22:35:19.320,-0.016,-0.797,0.199
11/26/2023 22:35:19.330,0.008,-0.867,0.219
11/26/2023 22:35:19.340,0.027,-0.941,0.234
11/26/2023 22:35:19.350,0.055,-0.988,0.258
11/26/2023 22:35:19.360,0.094,-1.004,0.285
11/26/2023 22:35:19.370,0.117,-1.004,0.293
11/26/2023 22:35:19.380,0.113,-1.023,0.305
11/26/2023 22:35:19.390,0.148,-1.027,0.285
11/26/2023 22:35:19.400,0.195,-0.996,0.242
11/26/2023 22:35:19.410,0.215,-0.988,0.227
11/26/2023 22:35:19.420,0.219,-1.008,0.238
11/26/2023 22:35:19.430,0.227,-1.016,0.266
11/26/2023 22:35:19.440,0.188,-1.02,0.313
11/26/2023 22:35:19.450,0.16,-0.977,0.332
11/26/2023 22:35:19.460,0.137,-0.91,0.328
11/26/2023 22:35:19.470,0.109,-0.852,0.34
11/26/2023 22:35:19.480,0.086,-0.824,0.348
11/26/2023 22:35:19.490,0.082,-0.848,0.359
11/26/2023 22:35:19.500,0.074,-0.879,0.375
11/26/2023 22:35:19.510,0.094,-0.914,0.391
11/26/2023 22:35:19.520,0.109,-0.934,0.402
11/26/2023 22:35:19.530,0.117,-0.965,0.395
11/26/2023 22:35:19.540,0.129,-0.973,0.391
11/26/2023 22:35:19.550,0.133,-0.953,0.387
11/26/2023 22:35:19.560,0.125,-0.922,0.375
11/26/2023 22:35:19.570,0.117,-0.898,0.395
11/26/2023 22:35:19.580,0.105,-0.898,0.43
11/26/2023 22:35:19.590,0.098,-0.906,0.457
11/26/2023 22:35:19.600,0.086,-0.895,0.457
11/26/2023 22:35:19.610,0.082,-0.863,0.457
11/26/2023 22:35:19.620,0.07,-0.832,0.441
11/26/2023 22:35:19.630,0.066,-0.82,0.426
11/26/2023 22:35:19.640,0.063,-0.82,0.398
11/26/2023 22:35:19.650,0.059,-0.867,0.391
11/26/2023 22:35:19.660,0.063,-0.914,0.387
11/26/2023 22:35:19.670,0.066,-0.953,0.383
11/26/2023 22:35:19.680,0.082,-0.98,0.395
11/26/2023 22:35:19.690,0.102,-0.98,0.41
11/26/2023 22:35:19.700,0.117,-0.969,0.422
11/26/2023 22:35:19.710,0.121,-0.957,0.426
11/26/2023 22:35:19.720,0.129,-0.949,0.43
11/26/2023 22:35:19.730,0.117,-0.938,0.441
11/26/2023 22:35:19.740,0.117,-0.918,0.453
11/26/2023 22:35:19.750,0.121,-0.891,0.461
11/26/2023 22:35:19.760,0.121,-0.875,0.453
11/26/2023 22:35:19.770,0.125,-0.871,0.43
11/26/2023 22:35:19.780,0.129,-0.898,0.422
11/26/2023 22:35:19.790,0.117,-0.93,0.41
11/26/2023 22:35:19.800,0.102,-0.941,0.387
11/26/2023 22:35:19.810,0.098,-0.934,0.387
11/26/2023 22:35:19.820,0.109,-0.918,0.379
11/26/2023 22:35:19.830,0.102,-0.941,0.375
11/26/2023 22:35:19.840,0.113,-0.957,0.406
11/26/2023 22:35:19.850,0.125,-0.938,0.398
11/26/2023 22:35:19.860,0.117,-0.914,0.379
11/26/2023 22:35:19.870,0.113,-0.906,0.387
11/26/2023 22:35:19.880,0.164,-0.914,0.441
11/26/2023 22:35:19.890,0.191,-0.941,0.473
11/26/2023 22:35:19.900,0.148,-0.949,0.43
11/26/2023 22:35:19.910,0.129,-0.953,0.43
11/26/2023 22:35:19.920,0.113,-0.957,0.422
11/26/2023 22:35:19.930,0.121,-0.934,0.406
11/26/2023 22:35:19.940,0.117,-0.91,0.402
11/26/2023 22:35:19.950,0.07,-0.902,0.367
11/26/2023 22:35:19.960,0.02,-0.898,0.34
11/26/2023 22:35:19.970,0.012,-0.918,0.348
11/26/2023 22:35:19.980,0.047,-0.934,0.371
11/26/2023 22:35:19.990,0.082,-0.945,0.387
11/26/2023 22:35:20.000,0.098,-0.957,0.406
11/26/2023 22:35:20.010,0.105,-0.965,0.414
11/26/2023 22:35:20.020,0.102,-0.957,0.398
11/26/2023 22:35:20.030,0.094,-0.91,0.352
11/26/2023 22:35:20.040,0.094,-0.793,0.289
11/26/2023 22:35:20.050,0.098,-0.82,0.328
11/26/2023 22:35:20.060,0.121,-0.945,0.426
11/26/2023 22:35:20.070,0.137,-1.039,0.48
11/26/2023 22:35:20.080,0.121,-1.039,0.453
11/26/2023 22:35:20.090,0.117,-1.004,0.422
11/26/2023 22:35:20.100,0.137,-0.957,0.426
11/26/2023 22:35:20.110,0.141,-0.961,0.434
11/26/2023 22:35:20.120,0.145,-0.969,0.445
11/26/2023 22:35:20.130,0.152,-0.957,0.445
11/26/2023 22:35:20.140,0.047,-0.941,0.371
11/26/2023 22:35:20.150,0.012,-0.914,0.336
11/26/2023 22:35:20.160,0.063,-0.879,0.313
11/26/2023 22:35:20.170,0.113,-0.906,0.375
11/26/2023 22:35:20.180,0.125,-0.977,0.43
11/26/2023 22:35:20.190,0.113,-0.988,0.43
11/26/2023 22:35:20.200,0.094,-0.973,0.453
11/26/2023 22:35:20.210,0.086,-0.988,0.461
11/26/2023 22:35:20.220,0.082,-0.957,0.422
11/26/2023 22:35:20.230,0.102,-0.922,0.422
11/26/2023 22:35:20.240,0.137,-0.875,0.406
11/26/2023 22:35:20.250,0.121,-0.875,0.398
11/26/2023 22:35:20.260,0.098,-0.879,0.391
11/26/2023 22:35:20.270,0.066,-0.883,0.387
11/26/2023 22:35:20.280,0.082,-0.918,0.398
11/26/2023 22:35:20.290,0.105,-0.945,0.406
11/26/2023 22:35:20.300,0.098,-0.965,0.41
11/26/2023 22:35:20.310,0.18,-0.855,0.445
11/26/2023 22:35:20.320,0.191,-0.895,0.449
11/26/2023 22:35:20.330,0.059,-0.953,0.367
11/26/2023 22:35:20.340,0.086,-0.965,0.438
11/26/2023 22:35:20.350,0.152,-0.941,0.48
11/26/2023 22:35:20.360,0.137,-0.891,0.449
11/26/2023 22:35:20.370,0.145,-0.863,0.426
11/26/2023 22:35:20.380,0.191,-0.871,0.457
11/26/2023 22:35:20.390,0.203,-0.922,0.48
11/26/2023 22:35:20.400,0.164,-0.945,0.469
11/26/2023 22:35:20.410,0.18,-0.957,0.465
11/26/2023 22:35:20.420,0.172,-1.008,0.477
11/26/2023 22:35:20.430,0.137,-0.934,0.469
11/26/2023 22:35:20.440,0.137,-0.883,0.453
11/26/2023 22:35:20.450,0.109,-0.824,0.406
11/26/2023 22:35:20.460,0.109,-0.816,0.426
11/26/2023 22:35:20.470,0.102,-0.875,0.457
11/26/2023 22:35:20.480,0.078,-0.891,0.457
11/26/2023 22:35:20.490,0.078,-0.906,0.457
11/26/2023 22:35:20.500,0.066,-0.926,0.457
11/26/2023 22:35:20.510,0.09,-0.938,0.488
11/26/2023 22:35:20.520,0.086,-0.934,0.477
11/26/2023 22:35:20.530,0.07,-0.914,0.449
11/26/2023 22:35:20.540,0.07,-0.898,0.426
11/26/2023 22:35:20.550,0.066,-0.914,0.441
11/26/2023 22:35:20.560,0.086,-0.891,0.449
11/26/2023 22:35:20.570,0.07,-0.871,0.477
11/26/2023 22:35:20.580,0.055,-0.859,0.488
11/26/2023 22:35:20.590,0.059,-0.852,0.484
11/26/2023 22:35:20.600,0.078,-0.84,0.473
11/26/2023 22:35:20.610,0.059,-0.844,0.418
11/26/2023 22:35:20.620,0.07,-0.895,0.434
11/26/2023 22:35:20.630,0.109,-0.953,0.426
11/26/2023 22:35:20.640,0.102,-0.988,0.426
11/26/2023 22:35:20.650,0.09,-0.984,0.418
11/26/2023 22:35:20.660,0.086,-0.984,0.418
11/26/2023 22:35:20.670,0.082,-0.965,0.441
11/26/2023 22:35:20.680,0.051,-0.938,0.453
11/26/2023 22:35:20.690,0.02,-0.887,0.438
11/26/2023 22:35:20.700,0.063,-0.887,0.465
11/26/2023 22:35:20.710,0.07,-0.863,0.449
11/26/2023 22:35:20.720,0.055,-0.859,0.402
11/26/2023 22:35:20.730,0.039,-0.895,0.422
11/26/2023 22:35:20.740,0.051,-0.973,0.492
11/26/2023 22:35:20.750,0.039,-0.992,0.465
11/26/2023 22:35:20.760,0.059,-0.977,0.438
11/26/2023 22:35:20.770,0.059,-0.961,0.426
11/26/2023 22:35:20.780,0.012,-0.957,0.426
11/26/2023 22:35:20.790,-0.035,-0.973,0.414
11/26/2023 22:35:20.800,-0.016,-1.02,0.457
11/26/2023 22:35:20.810,-0.043,-1.059,0.523
11/26/2023 22:35:20.820,0.133,-0.988,0.512
11/26/2023 22:35:20.830,0.246,-0.789,0.293
11/26/2023 22:35:20.840,0.301,-0.629,0.32
11/26/2023 22:35:20.850,-0.078,-0.785,0.301
11/26/2023 22:35:20.860,-0.125,-0.93,0.43
11/26/2023 22:35:20.870,0.117,-0.98,0.59
11/26/2023 22:35:20.880,0.094,-0.969,0.52
11/26/2023 22:35:20.890,0.031,-0.949,0.445
11/26/2023 22:35:20.900,0.063,-0.945,0.441
11/26/2023 22:35:20.910,0.086,-0.957,0.449
11/26/2023 22:35:20.920,0.082,-0.961,0.445
11/26/2023 22:35:20.930,0.059,-0.938,0.41
11/26/2023 22:35:20.940,0.043,-0.926,0.387
11/26/2023 22:35:20.950,0.055,-0.922,0.398
11/26/2023 22:35:20.960,0.066,-0.922,0.414
11/26/2023 22:35:20.970,0.066,-0.926,0.426
11/26/2023 22:35:20.980,0.051,-0.938,0.426
11/26/2023 22:35:20.990,0.074,-0.93,0.43
11/26/2023 22:35:21.000,0.098,-0.902,0.414
11/26/2023 22:35:21.010,0.098,-0.887,0.406
11/26/2023 22:35:21.020,0.07,-0.902,0.418
11/26/2023 22:35:21.030,0.074,-0.938,0.457
11/26/2023 22:35:21.040,0.082,-0.934,0.465
11/26/2023 22:35:21.050,0.043,-0.922,0.422
11/26/2023 22:35:21.060,0.035,-0.922,0.402
11/26/2023 22:35:21.070,0.047,-0.938,0.406
11/26/2023 22:35:21.080,0.047,-0.938,0.406
11/26/2023 22:35:21.090,0.035,-0.938,0.398
11/26/2023 22:35:21.100,0.051,-0.934,0.406
11/26/2023 22:35:21.110,0.078,-1.004,0.445
11/26/2023 22:35:21.120,0.109,-1.047,0.488
11/26/2023 22:35:21.130,0.059,-0.973,0.414
11/26/2023 22:35:21.140,0.07,-0.934,0.418
11/26/2023 22:35:21.150,0.082,-0.926,0.445
11/26/2023 22:35:21.160,0.102,-0.898,0.457
11/26/2023 22:35:21.170,0.07,-0.848,0.414
11/26/2023 22:35:21.180,0.066,-0.801,0.387
11/26/2023 22:35:21.190,0.07,-0.82,0.398
11/26/2023 22:35:21.200,0.102,-0.852,0.453
11/26/2023 22:35:21.210,0.105,-0.914,0.488
11/26/2023 22:35:21.220,-0.008,-0.957,0.434
11/26/2023 22:35:21.230,-0.117,-1.117,0.398
11/26/2023 22:35:21.240,0.055,-1.199,0.5
11/26/2023 22:35:21.250,0.113,-1.016,0.313
11/26/2023 22:35:21.260,0.07,-0.949,0.332
11/26/2023 22:35:21.270,0.082,-0.895,0.387
11/26/2023 22:35:21.280,0.02,-0.879,0.406
11/26/2023 22:35:21.290,0.012,-0.895,0.445
11/26/2023 22:35:21.300,0.043,-0.914,0.477
11/26/2023 22:35:21.310,0.063,-0.91,0.48
11/26/2023 22:35:21.320,0.078,-0.891,0.453
11/26/2023 22:35:21.330,0.078,-0.871,0.434
11/26/2023 22:35:21.340,0.066,-0.891,0.41
11/26/2023 22:35:21.350,0.059,-0.934,0.434
11/26/2023 22:35:21.360,0.055,-0.945,0.438
11/26/2023 22:35:21.370,0.051,-0.906,0.414
11/26/2023 22:35:21.380,0.082,-0.938,0.422
11/26/2023 22:35:21.390,0.156,-0.953,0.48
11/26/2023 22:35:21.400,0.246,-0.883,0.496
11/26/2023 22:35:21.410,0.117,-0.84,0.367
11/26/2023 22:35:21.420,0.016,-0.855,0.344
11/26/2023 22:35:21.430,-0.012,-0.859,0.398
11/26/2023 22:35:21.440,0.059,-0.91,0.512
11/26/2023 22:35:21.450,0.059,-0.988,0.559
11/26/2023 22:35:21.460,0.043,-0.969,0.535
11/26/2023 22:35:21.470,0.051,-0.93,0.531
11/26/2023 22:35:21.480,0.031,-0.883,0.488
11/26/2023 22:35:21.490,0.027,-0.797,0.434
11/26/2023 22:35:21.500,0.02,-0.832,0.418
11/26/2023 22:35:21.510,0.117,-0.91,0.473
11/26/2023 22:35:21.520,0.172,-0.973,0.508
11/26/2023 22:35:21.530,0.133,-0.992,0.469
11/26/2023 22:35:21.540,0.129,-0.945,0.488
11/26/2023 22:35:21.550,0.094,-0.926,0.496
11/26/2023 22:35:21.560,0.117,-0.93,0.535
11/26/2023 22:35:21.570,0.148,-0.914,0.543
11/26/2023 22:35:21.580,0.137,-0.887,0.504
11/26/2023 22:35:21.590,0.129,-0.82,0.441
11/26/2023 22:35:21.600,0.125,-0.77,0.508
11/26/2023 22:35:21.610,0.105,-0.785,0.539
11/26/2023 22:35:21.620,0.102,-0.852,0.535
11/26/2023 22:35:21.630,0.09,-0.906,0.531
11/26/2023 22:35:21.640,0.148,-0.906,0.574
11/26/2023 22:35:21.650,0.16,-0.895,0.602
11/26/2023 22:35:21.660,0.141,-0.852,0.625
11/26/2023 22:35:21.670,0.09,-0.813,0.637
11/26/2023 22:35:21.680,0.063,-0.801,0.613
11/26/2023 22:35:21.690,0.066,-0.762,0.523
11/26/2023 22:35:21.700,0.145,-0.754,0.516
11/26/2023 22:35:21.710,0.148,-0.77,0.508
11/26/2023 22:35:21.720,0.121,-0.816,0.496
11/26/2023 22:35:21.730,0.09,-0.859,0.469
11/26/2023 22:35:21.740,0.129,-0.84,0.555
11/26/2023 22:35:21.750,0.094,-0.945,0.617
11/26/2023 22:35:21.760,0.016,-0.906,0.637
11/26/2023 22:35:21.770,-0.031,-0.879,0.559
11/26/2023 22:35:21.780,-0.004,-0.793,0.535
11/26/2023 22:35:21.790,0.012,-0.793,0.594
11/26/2023 22:35:21.800,0.023,-0.855,0.625
11/26/2023 22:35:21.810,0.039,-0.879,0.613
11/26/2023 22:35:21.820,0.051,-0.859,0.613
11/26/2023 22:35:21.830,0.055,-0.82,0.625
11/26/2023 22:35:21.840,0.094,-0.75,0.656
11/26/2023 22:35:21.850,0.078,-0.723,0.641
11/26/2023 22:35:21.860,-0.105,-0.949,0.664
11/26/2023 22:35:21.870,-0.031,-0.875,0.602
11/26/2023 22:35:21.880,0.031,-0.887,0.566
11/26/2023 22:35:21.890,0.082,-0.867,0.504
11/26/2023 22:35:21.900,0.105,-0.879,0.52
11/26/2023 22:35:21.910,0.164,-0.914,0.625
11/26/2023 22:35:21.920,0.188,-0.914,0.602
11/26/2023 22:35:21.930,0.195,-0.883,0.539
11/26/2023 22:35:21.940,0.195,-0.883,0.508
11/26/2023 22:35:21.950,0.203,-0.879,0.52
11/26/2023 22:35:21.960,0.188,-0.863,0.523
11/26/2023 22:35:21.970,0.184,-0.824,0.539
11/26/2023 22:35:21.980,0.176,-0.777,0.563
11/26/2023 22:35:21.990,0.148,-0.754,0.578
11/26/2023 22:35:22.000,0.129,-0.738,0.578
11/26/2023 22:35:22.010,0.16,-0.773,0.598
11/26/2023 22:35:22.020,0.168,-0.844,0.633
11/26/2023 22:35:22.030,0.168,-0.879,0.625
11/26/2023 22:35:22.040,0.148,-0.883,0.766
11/26/2023 22:35:22.050,0.164,-0.922,0.691
11/26/2023 22:35:22.060,0.195,-0.852,0.602
11/26/2023 22:35:22.070,0.199,-0.84,0.547
11/26/2023 22:35:22.080,0.234,-0.828,0.582
11/26/2023 22:35:22.090,0.215,-0.824,0.535
11/26/2023 22:35:22.100,0.203,-0.816,0.52
11/26/2023 22:35:22.110,0.195,-0.813,0.676
11/26/2023 22:35:22.120,0.168,-0.746,0.582
11/26/2023 22:35:22.130,0.16,-0.879,0.52
11/26/2023 22:35:22.140,0.188,-0.883,0.508
11/26/2023 22:35:22.150,0.227,-0.844,0.543
11/26/2023 22:35:22.160,0.223,-0.813,0.555
11/26/2023 22:35:22.170,0.215,-0.801,0.527
11/26/2023 22:35:22.180,0.219,-0.789,0.535
11/26/2023 22:35:22.190,0.203,-0.801,0.527
11/26/2023 22:35:22.200,0.191,-0.816,0.566
11/26/2023 22:35:22.210,0.188,-0.852,0.574
11/26/2023 22:35:22.220,0.234,-0.852,0.625
11/26/2023 22:35:22.230,0.262,-0.848,0.645
11/26/2023 22:35:22.240,0.242,-0.84,0.621
11/26/2023 22:35:22.250,0.234,-0.824,0.609
11/26/2023 22:35:22.260,0.254,-0.797,0.586
11/26/2023 22:35:22.270,0.242,-0.758,0.551
11/26/2023 22:35:22.280,0.242,-0.754,0.578
11/26/2023 22:35:22.290,0.281,-0.738,0.578
11/26/2023 22:35:22.300,0.27,-0.711,0.625
11/26/2023 22:35:22.310,0.223,-0.719,0.676
11/26/2023 22:35:22.320,0.246,-0.684,0.727
11/26/2023 22:35:22.330,0.316,-0.434,1.457
11/26/2023 22:35:22.340,0.262,-0.172,1.508
11/26/2023 22:35:22.350,0.129,-0.734,0.965
11/26/2023 22:35:22.360,0.316,-0.918,0.641
11/26/2023 22:35:22.370,0.484,-0.816,0.605
11/26/2023 22:35:22.380,0.508,-0.652,0.629
11/26/2023 22:35:22.390,0.555,-0.469,0.676
11/26/2023 22:35:22.400,0.488,-0.5,0.766
11/26/2023 22:35:22.410,0.344,-0.711,0.73
11/26/2023 22:35:22.420,0.129,-0.859,0.641
11/26/2023 22:35:22.430,0.277,-0.641,0.695
11/26/2023 22:35:22.440,0.578,-0.398,1.039
11/26/2023 22:35:22.450,0.48,-0.418,0.93
11/26/2023 22:35:22.460,0.398,-0.34,0.91
11/26/2023 22:35:22.470,0.293,-0.289,0.965
11/26/2023 22:35:22.480,0.266,-0.273,0.988
11/26/2023 22:35:22.490,0.285,-0.227,1.027
11/26/2023 22:35:22.500,0.289,-0.176,1.074
11/26/2023 22:35:22.510,0.328,-0.145,1.047
11/26/2023 22:35:22.520,0.313,-0.137,1.004
11/26/2023 22:35:22.530,0.285,-0.133,0.992
11/26/2023 22:35:22.540,0.238,-0.105,0.992
11/26/2023 22:35:22.550,0.164,-0.188,1
11/26/2023 22:35:22.560,0.098,-0.383,0.938
11/26/2023 22:35:22.570,0.152,-0.418,0.844
11/26/2023 22:35:22.580,0.289,-0.328,0.809
11/26/2023 22:35:22.590,0.406,-0.219,0.84
11/26/2023 22:35:22.600,0.453,-0.164,0.914
11/26/2023 22:35:22.610,0.453,-0.129,0.941
11/26/2023 22:35:22.620,0.441,-0.117,0.938
11/26/2023 22:35:22.630,0.402,-0.145,0.93
11/26/2023 22:35:22.640,0.355,-0.188,0.879
11/26/2023 22:35:22.650,0.363,-0.215,0.82
11/26/2023 22:35:22.660,0.41,-0.211,0.813
11/26/2023 22:35:22.670,0.461,-0.191,0.82
11/26/2023 22:35:22.680,0.5,-0.16,0.863
11/26/2023 22:35:22.690,0.531,-0.102,0.918
11/26/2023 22:35:22.700,0.527,-0.047,0.949
11/26/2023 22:35:22.710,0.504,-0.027,0.973
11/26/2023 22:35:22.720,0.496,0.004,0.98
11/26/2023 22:35:22.730,0.488,0.043,0.988
11/26/2023 22:35:22.740,0.48,0.063,1
11/26/2023 22:35:22.750,0.434,0.059,1.039
11/26/2023 22:35:22.760,0.32,-0.055,0.875
11/26/2023 22:35:22.770,0.18,-0.16,0.75
11/26/2023 22:35:22.780,0.16,-0.055,0.234
11/26/2023 22:35:22.790,0.246,0.211,0.508
11/26/2023 22:35:22.800,0.258,0.043,1.438
11/26/2023 22:35:22.810,0.168,-0.059,1.527
11/26/2023 22:35:22.820,0.027,-0.164,1.375
11/26/2023 22:35:22.830,0.02,-0.223,1.34
11/26/2023 22:35:22.840,0.082,-0.281,1.418
11/26/2023 22:35:22.850,0.098,-0.258,1.344
11/26/2023 22:35:22.860,0.145,-0.285,1.266
11/26/2023 22:35:22.870,0.113,-0.453,1.012
11/26/2023 22:35:22.880,0.074,-0.617,0.949
11/26/2023 22:35:22.890,0.137,-0.645,0.973
11/26/2023 22:35:22.900,0.117,-0.691,0.977
11/26/2023 22:35:22.910,0.086,-0.68,0.965
11/26/2023 22:35:22.920,0.023,-0.672,0.957
11/26/2023 22:35:22.930,-0.055,-0.73,0.988
11/26/2023 22:35:22.940,-0.078,-0.813,0.871
11/26/2023 22:35:22.950,0.051,-0.77,0.734
11/26/2023 22:35:22.960,0.148,-0.805,0.582
11/26/2023 22:35:22.970,0.215,-0.871,0.531
11/26/2023 22:35:22.980,0.164,-0.926,0.555
11/26/2023 22:35:22.990,-0.078,-0.887,0.492
11/26/2023 22:35:23.000,-0.117,-0.77,0.563
11/26/2023 22:35:23.010,-0.137,-0.719,0.645
11/26/2023 22:35:23.020,-0.098,-0.703,0.559
11/26/2023 22:35:23.030,-0.043,-0.734,0.457
11/26/2023 22:35:23.040,-0.02,-0.785,0.418
11/26/2023 22:35:23.050,-0.059,-0.848,0.438
11/26/2023 22:35:23.060,-0.094,-0.879,0.465
11/26/2023 22:35:23.070,-0.055,-0.801,0.398
11/26/2023 22:35:23.080,-0.066,-0.75,0.375
11/26/2023 22:35:23.090,-0.055,-0.754,0.375
11/26/2023 22:35:23.100,-0.016,-0.734,0.352
11/26/2023 22:35:23.110,-0.016,-0.691,0.336
11/26/2023 22:35:23.120,-0.063,-0.641,0.324
11/26/2023 22:35:23.130,-0.133,-0.609,0.328
11/26/2023 22:35:23.140,-0.18,-0.57,0.309
11/26/2023 22:35:23.150,-0.242,-0.707,0.313
11/26/2023 22:35:23.160,-0.465,-0.871,0.266
11/26/2023 22:35:23.170,-0.465,-0.832,0.254
11/26/2023 22:35:23.180,-0.34,-0.777,0.195
11/26/2023 22:35:23.190,-0.008,-0.613,0.32
11/26/2023 22:35:23.200,0.023,-0.598,0.281
11/26/2023 22:35:23.210,-0.133,-0.613,0.277
11/26/2023 22:35:23.220,-0.109,-0.594,0.25
11/26/2023 22:35:23.230,-0.055,-0.656,0.301
11/26/2023 22:35:23.240,0.004,-0.813,0.277
11/26/2023 22:35:23.250,-0.027,-1.113,0.418
11/26/2023 22:35:23.260,-0.059,-1.453,0.535
11/26/2023 22:35:23.270,-0.016,-1.66,0.609
11/26/2023 22:35:23.280,0.105,-1.699,0.594
11/26/2023 22:35:23.290,0.164,-1.473,0.465
11/26/2023 22:35:23.300,0.129,-1.145,0.316
11/26/2023 22:35:23.310,0.051,-0.93,0.285
11/26/2023 22:35:23.320,-0.008,-0.836,0.32
11/26/2023 22:35:23.330,-0.027,-0.785,0.289
11/26/2023 22:35:23.340,-0.043,-0.781,0.25
11/26/2023 22:35:23.350,-0.051,-0.863,0.195
11/26/2023 22:35:23.360,-0.063,-1.035,0.223
11/26/2023 22:35:23.370,-0.082,-1.191,0.16
11/26/2023 22:35:23.380,-0.102,-1.223,0.09
11/26/2023 22:35:23.390,-0.227,-1.191,-0.055
11/26/2023 22:35:23.400,-0.445,-1.02,-0.254
11/26/2023 22:35:23.410,-0.426,-1.016,-0.113
11/26/2023 22:35:23.420,-0.301,-0.906,-0.223
11/26/2023 22:35:23.430,-0.203,-0.805,-0.23
11/26/2023 22:35:23.440,-0.152,-0.828,-0.191
11/26/2023 22:35:23.450,-0.121,-0.875,-0.176
11/26/2023 22:35:23.460,-0.105,-0.91,-0.141
11/26/2023 22:35:23.470,-0.172,-0.828,-0.098
11/26/2023 22:35:23.480,-0.133,-0.816,-0.168
11/26/2023 22:35:23.490,-0.176,-0.852,-0.164
11/26/2023 22:35:23.500,-0.188,-0.883,-0.109
11/26/2023 22:35:23.510,-0.105,-0.898,-0.074
11/26/2023 22:35:23.520,-0.031,-0.906,-0.105
11/26/2023 22:35:23.530,-0.063,-0.918,-0.168
11/26/2023 22:35:23.540,-0.145,-0.938,-0.191
11/26/2023 22:35:23.550,-0.23,-0.961,-0.184
11/26/2023 22:35:23.560,-0.297,-0.953,-0.172
11/26/2023 22:35:23.570,-0.301,-0.93,-0.176
11/26/2023 22:35:23.580,-0.23,-0.906,-0.148
11/26/2023 22:35:23.590,-0.152,-0.961,-0.098
11/26/2023 22:35:23.600,-0.129,-1.07,-0.07
11/26/2023 22:35:23.610,-0.277,-1.266,-0.59
11/26/2023 22:35:23.620,-0.336,-1.191,-0.973
11/26/2023 22:35:23.630,-0.52,-1.266,-0.938
11/26/2023 22:35:23.640,-0.289,-1.027,0.012
11/26/2023 22:35:23.650,-0.098,-0.844,0.547
11/26/2023 22:35:23.660,-0.078,-0.922,0.25
11/26/2023 22:35:23.670,-0.441,-1.156,0.238
11/26/2023 22:35:23.680,-0.863,-1.43,0.227
11/26/2023 22:35:23.690,-0.75,-1.359,0.242
11/26/2023 22:35:23.700,-0.559,-1.215,0.328
11/26/2023 22:35:23.710,-0.598,-1.242,0.398
11/26/2023 22:35:23.720,-0.719,-1.289,0.379
11/26/2023 22:35:23.730,-0.75,-1.309,0.375
11/26/2023 22:35:23.740,-0.793,-1.344,0.398
11/26/2023 22:35:23.750,-0.797,-1.348,0.371
11/26/2023 22:35:23.760,-0.813,-1.328,0.266
11/26/2023 22:35:23.770,-0.813,-1.27,0.141
11/26/2023 22:35:23.780,-0.723,-1.148,0.016
11/26/2023 22:35:23.790,-0.641,-1.008,-0.148
11/26/2023 22:35:23.800,-0.605,-0.883,-0.348
11/26/2023 22:35:23.810,-0.602,-0.781,-0.516
11/26/2023 22:35:23.820,-0.57,-0.688,-0.629
11/26/2023 22:35:23.830,-0.457,-0.605,-0.605
11/26/2023 22:35:23.840,-0.348,-0.449,-0.543
11/26/2023 22:35:23.850,-0.246,-0.32,-0.496
11/26/2023 22:35:23.860,-0.18,-0.242,-0.488
11/26/2023 22:35:23.870,-0.148,-0.195,-0.523
11/26/2023 22:35:23.880,-0.148,-0.203,-0.531
11/26/2023 22:35:23.890,-0.23,-0.285,-0.523
11/26/2023 22:35:23.900,-0.254,-0.367,-0.367
11/26/2023 22:35:23.910,-0.195,-0.391,-0.199
11/26/2023 22:35:23.920,-0.09,-0.395,-0.141
11/26/2023 22:35:23.930,0.016,-0.418,-0.199
11/26/2023 22:35:23.940,0.09,-0.488,-0.387
11/26/2023 22:35:23.950,0.156,-0.555,-0.512
11/26/2023 22:35:23.960,0.191,-0.633,-0.617
11/26/2023 22:35:23.970,0.164,-0.77,-0.742
11/26/2023 22:35:23.980,0.086,-0.91,-0.77
11/26/2023 22:35:23.990,0.031,-0.992,-0.703
11/26/2023 22:35:24.000,0.059,-0.977,-0.613
11/26/2023 22:35:24.010,0.141,-0.93,-0.605
11/26/2023 22:35:24.020,0.223,-0.871,-0.691
11/26/2023 22:35:24.030,0.215,-0.898,-0.715
11/26/2023 22:35:24.040,0.09,-1.047,-0.668
11/26/2023 22:35:24.050,-0.016,-1.195,-0.586
11/26/2023 22:35:24.060,-0.047,-1.297,-0.508
11/26/2023 22:35:24.070,0.008,-1.336,-0.457
11/26/2023 22:35:24.080,0.102,-1.281,-0.512
11/26/2023 22:35:24.090,0.133,-1.188,-0.602
11/26/2023 22:35:24.100,0.137,-1.117,-0.711
11/26/2023 22:35:24.110,0.098,-1.082,-0.73
11/26/2023 22:35:24.120,0.066,-1.082,-0.543
11/26/2023 22:35:24.130,0.078,-1.09,-0.25
11/26/2023 22:35:24.140,0.074,-1.105,-0.035
11/26/2023 22:35:24.150,0.074,-1.074,-0.074
11/26/2023 22:35:24.160,0.066,-1.008,-0.273
11/26/2023 22:35:24.170,0.109,-0.926,-0.359
11/26/2023 22:35:24.180,0.383,-0.781,-0.168
11/26/2023 22:35:24.190,0.551,-0.723,0.215
11/26/2023 22:35:24.200,0.316,-1.094,0.16
11/26/2023 22:35:24.210,-1.109,-2.582,-0.32
11/26/2023 22:35:24.220,-1.082,-2.348,0.367
11/26/2023 22:35:24.230,-0.371,-1.512,-0.309
11/26/2023 22:35:24.240,-0.184,-1.176,-0.348
11/26/2023 22:35:24.250,-0.301,-1.207,-0.379
11/26/2023 22:35:24.260,-0.059,-1.059,-0.238
11/26/2023 22:35:24.270,0.191,-0.977,-0.227
11/26/2023 22:35:24.280,0.098,-1.043,-0.168
11/26/2023 22:35:24.290,0.117,-1.031,-0.172
11/26/2023 22:35:24.300,0.07,-1.047,-0.195
11/26/2023 22:35:24.310,0.055,-0.996,-0.234
11/26/2023 22:35:24.320,0.02,-0.93,-0.27
11/26/2023 22:35:24.330,-0.02,-0.918,-0.281
11/26/2023 22:35:24.340,-0.016,-0.93,-0.254
11/26/2023 22:35:24.350,-0.023,-0.91,-0.285
11/26/2023 22:35:24.360,-0.063,-0.895,-0.332
11/26/2023 22:35:24.370,-0.234,-1.063,-0.227
11/26/2023 22:35:24.380,-0.168,-1.035,-0.246
11/26/2023 22:35:24.390,-0.086,-1,-0.25
11/26/2023 22:35:24.400,-0.102,-0.977,-0.297
11/26/2023 22:35:24.410,-0.203,-0.988,-0.395
11/26/2023 22:35:24.420,0.086,-0.996,-0.266
11/26/2023 22:35:24.430,0.098,-1.043,-0.238
11/26/2023 22:35:24.440,0.039,-0.98,-0.34
11/26/2023 22:35:24.450,-0.02,-0.957,-0.383
11/26/2023 22:35:24.460,0.016,-0.934,-0.359
11/26/2023 22:35:24.470,0.004,-0.918,-0.332
11/26/2023 22:35:24.480,-0.043,-0.918,-0.395
11/26/2023 22:35:24.490,0.121,-0.914,-0.406
11/26/2023 22:35:24.500,0.113,-0.914,-0.387
11/26/2023 22:35:24.510,0.109,-0.91,-0.453
11/26/2023 22:35:24.520,0.023,-0.914,-0.465
11/26/2023 22:35:24.530,-0.02,-0.996,-0.375
11/26/2023 22:35:24.540,0.031,-1.004,-0.301
11/26/2023 22:35:24.550,0.063,-0.98,-0.273
11/26/2023 22:35:24.560,0.063,-0.91,-0.324
11/26/2023 22:35:24.570,0.027,-0.863,-0.387
11/26/2023 22:35:24.580,0.023,-0.875,-0.375
11/26/2023 22:35:24.590,0.004,-0.891,-0.379
11/26/2023 22:35:24.600,0.051,-0.891,-0.402
11/26/2023 22:35:24.610,0.082,-0.879,-0.426
11/26/2023 22:35:24.620,0.09,-0.871,-0.438
11/26/2023 22:35:24.630,0.051,-0.871,-0.461
11/26/2023 22:35:24.640,-0.281,-1.086,-0.277
11/26/2023 22:35:24.650,-0.051,-1.152,-0.141
11/26/2023 22:35:24.660,0,-1.156,0.121
11/26/2023 22:35:24.670,-0.016,-1.129,0.391
11/26/2023 22:35:24.680,0.199,-0.949,0.637
11/26/2023 22:35:24.690,0.066,-0.953,-0.43
11/26/2023 22:35:24.700,-0.266,-0.949,-0.773
11/26/2023 22:35:24.710,-0.137,-0.859,-0.52
11/26/2023 22:35:24.720,0.004,-0.801,-0.27
11/26/2023 22:35:24.730,-0.063,-0.762,-0.414
11/26/2023 22:35:24.740,-0.098,-0.891,-0.262
11/26/2023 22:35:24.750,-0.094,-0.914,-0.34
11/26/2023 22:35:24.760,-0.02,-0.859,-0.348
11/26/2023 22:35:24.770,-0.008,-0.918,-0.297
11/26/2023 22:35:24.780,-0.027,-0.934,-0.328
11/26/2023 22:35:24.790,-0.016,-0.949,-0.324
11/26/2023 22:35:24.800,0,-0.996,-0.289
11/26/2023 22:35:24.810,-0.004,-1.063,-0.305
11/26/2023 22:35:24.820,-0.176,-1.164,-0.508
11/26/2023 22:35:24.830,-0.141,-1.094,-0.598
11/26/2023 22:35:24.840,0.02,-0.949,-0.605
11/26/2023 22:35:24.850,0.125,-0.871,-0.426
11/26/2023 22:35:24.860,0.043,-0.887,-0.234
11/26/2023 22:35:24.870,-0.047,-0.941,-0.043
11/26/2023 22:35:24.880,0.023,-0.863,-0.152
11/26/2023 22:35:24.890,-0.039,-0.891,-0.195
11/26/2023 22:35:24.900,-0.023,-0.887,-0.059
11/26/2023 22:35:24.910,0.086,-1.078,0.488
11/26/2023 22:35:24.920,-0.051,-1.07,0.336
11/26/2023 22:35:24.930,0.008,-0.852,-0.012
11/26/2023 22:35:24.940,0.094,-0.738,-0.148
11/26/2023 22:35:24.950,0.258,-0.648,-0.113
11/26/2023 22:35:24.960,0.277,-0.652,-0.094
11/26/2023 22:35:24.970,0.227,-0.684,-0.051
11/26/2023 22:35:24.980,-0.359,-1.207,0.227
11/26/2023 22:35:24.990,-0.453,-1.293,0.176
11/26/2023 22:35:25.000,-0.242,-1.383,0.125
11/26/2023 22:35:25.010,-0.129,-1.406,0.043
11/26/2023 22:35:25.020,-0.074,-1.195,0.027
11/26/2023 22:35:25.030,-0.063,-1.031,0.02
11/26/2023 22:35:25.040,-0.063,-0.961,0.02
11/26/2023 22:35:25.050,-0.035,-1.133,0.012
11/26/2023 22:35:25.060,-0.016,-1.082,-0.008
11/26/2023 22:35:25.070,-0.02,-1.031,0.051
11/26/2023 22:35:25.080,-0.02,-1.016,0.086
11/26/2023 22:35:25.090,-0.016,-1.012,0.09
11/26/2023 22:35:25.100,-0.008,-1.008,0.09
11/26/2023 22:35:25.110,-0.008,-1.012,0.039
11/26/2023 22:35:25.120,-0.016,-1.016,0.004
11/26/2023 22:35:25.130,-0.012,-1.016,0.02
11/26/2023 22:35:25.140,-0.02,-1.012,0.016
11/26/2023 22:35:25.150,-0.027,-1.008,0.008
11/26/2023 22:35:25.160,-0.031,-1.012,0.016
11/26/2023 22:35:25.170,-0.027,-1.008,0.02
11/26/2023 22:35:25.180,-0.027,-1.012,0.016
11/26/2023 22:35:25.190,-0.027,-1.012,0.008
11/26/2023 22:35:25.200,-0.02,-1.008,0.012
11/26/2023 22:35:25.210,-0.02,-1.008,0.008
11/26/2023 22:35:25.220,-0.027,-1.016,0.016
11/26/2023 22:35:25.230,-0.031,-1.016,0.016
11/26/2023 22:35:25.240,-0.031,-1.027,0.02
11/26/2023 22:35:25.250,-0.027,-1.02,0.023
11/26/2023 22:35:25.260,-0.027,-1.016,0.027
11/26/2023 22:35:25.270,-0.027,-1.035,0.047
11/26/2023 22:35:25.280,-0.023,-1.02,0.039
11/26/2023 22:35:25.290,-0.027,-1.02,0.039
11/26/2023 22:35:25.300,-0.023,-1.016,0.039
11/26/2023 22:35:25.310,-0.023,-1.016,0.035
11/26/2023 22:35:25.320,-0.027,-1.012,0.02
11/26/2023 22:35:25.330,-0.031,-1.012,0.02
11/26/2023 22:35:25.340,-0.023,-1.012,0.031
11/26/2023 22:35:25.350,0.027,-0.957,0.016
11/26/2023 22:35:25.360,0.016,-0.926,-0.016
11/26/2023 22:35:25.370,-0.004,-0.977,0.012
11/26/2023 22:35:25.380,-0.012,-1.004,0.027
11/26/2023 22:35:25.390,-0.023,-1.008,0.023
11/26/2023 22:35:25.400,-0.027,-1.008,0.023
11/26/2023 22:35:25.410,-0.02,-1.008,0.027
11/26/2023 22:35:25.420,-0.023,-1.012,0.031
11/26/2023 22:35:25.430,-0.027,-1.012,0.027
11/26/2023 22:35:25.440,-0.023,-1.012,0.023
11/26/2023 22:35:25.450,-0.023,-1.008,0.027
11/26/2023 22:35:25.460,-0.023,-1.012,0.027
11/26/2023 22:35:25.470,-0.023,-1.008,0.027
11/26/2023 22:35:25.480,-0.027,-1.008,0.023
11/26/2023 22:35:25.490,-0.027,-1.012,0.02
11/26/2023 22:35:25.500,-0.035,-1.004,0.02
11/26/2023 22:35:25.510,-0.027,-1.008,0.023
11/26/2023 22:35:25.520,-0.027,-1.012,0.027
11/26/2023 22:35:25.530,-0.027,-1.012,0.027
11/26/2023 22:35:25.540,-0.027,-1.012,0.031
11/26/2023 22:35:25.550,-0.027,-1.012,0.023
11/26/2023 22:35:25.560,-0.027,-1.012,0.023
11/26/2023 22:35:25.570,-0.023,-1.012,0.023
11/26/2023 22:35:25.580,-0.023,-1.012,0.027
11/26/2023 22:35:25.590,-0.02,-1.004,0.027
11/26/2023 22:35:25.600,-0.023,-1.008,0.031
11/26/2023 22:35:25.610,-0.023,-1.012,0.027
11/26/2023 22:35:25.620,-0.023,-1.012,0.027
11/26/2023 22:35:25.630,-0.02,-1.008,0.027
11/26/2023 22:35:25.640,-0.023,-1.008,0.027
11/26/2023 22:35:25.650,-0.031,-1.008,0.02
11/26/2023 22:35:25.660,-0.027,-1.012,0.023
11/26/2023 22:35:25.670,-0.023,-1.012,0.027
11/26/2023 22:35:25.680,-0.027,-1.016,0.027
11/26/2023 22:35:25.690,-0.027,-1.012,0.027
11/26/2023 22:35:25.700,-0.023,-1.012,0.027
11/26/2023 22:35:25.710,-0.023,-1.012,0.023
11/26/2023 22:35:25.720,-0.023,-1.012,0.023
11/26/2023 22:35:25.730,-0.023,-1.012,0.027
11/26/2023 22:35:25.740,-0.02,-1.012,0.023
11/26/2023 22:35:25.750,-0.027,-1.012,0.023
11/26/2023 22:35:25.760,-0.023,-1.012,0.027
11/26/2023 22:35:25.770,-0.023,-1.012,0.027
11/26/2023 22:35:25.780,-0.023,-1.012,0.027
11/26/2023 22:35:25.790,-0.023,-1.012,0.027
11/26/2023 22:35:25.800,-0.023,-1.012,0.02
11/26/2023 22:35:25.810,-0.027,-1.008,0.023
11/26/2023 22:35:25.820,-0.027,-1.008,0.023
11/26/2023 22:35:25.830,-0.023,-1.012,0.02
11/26/2023 22:35:25.840,-0.023,-1.012,0.023
11/26/2023 22:35:25.850,-0.023,-1.012,0.023
11/26/2023 22:35:25.860,-0.027,-1.012,0.02
11/26/2023 22:35:25.870,-0.023,-1.012,0.023
11/26/2023 22:35:25.880,-0.023,-1.012,0.027
11/26/2023 22:35:25.890,-0.02,-1.012,0.027
11/26/2023 22:35:25.900,-0.02,-1.012,0.023
11/26/2023 22:35:25.910,-0.023,-1.012,0.023
11/26/2023 22:35:25.920,-0.023,-1.012,0.023
11/26/2023 22:35:25.930,-0.023,-1.02,0.02
11/26/2023 22:35:25.940,-0.027,-1.023,0.016
11/26/2023 22:35:25.950,-0.031,-1.023,0.012
11/26/2023 22:35:25.960,-0.023,-1.016,0.016
11/26/2023 22:35:25.970,-0.02,-1.008,0.023
11/26/2023 22:35:25.980,-0.027,-1.008,0.035
11/26/2023 22:35:25.990,-0.027,-1.012,0.027
11/26/2023 22:35:26.000,-0.027,-1.012,0.027
11/26/2023 22:35:26.010,-0.027,-1.012,0.027
11/26/2023 22:35:26.020,-0.027,-1.012,0.027
11/26/2023 22:35:26.030,-0.027,-1.012,0.027
11/26/2023 22:35:26.040,-0.027,-1.012,0.027
11/26/2023 22:35:26.050,-0.027,-1.012,0.027
11/26/2023 22:35:26.060,-0.027,-1.012,0.027
11/26/2023 22:35:26.070,-0.027,-1.012,0.027
11/26/2023 22:35:26.080,-0.027,-1.012,0.027
11/26/2023 22:35:26.090,-0.027,-1.012,0.027
11/26/2023 22:35:26.100,-0.027,-1.012,0.027
11/26/2023 22:35:26.110,-0.027,-1.012,0.027
11/26/2023 22:35:26.120,-0.027,-1.012,0.027
11/26/2023 22:35:26.130,-0.027,-1.012,0.027
11/26/2023 22:35:26.140,-0.027,-1.012,0.027
11/26/2023 22:35:26.150,-0.027,-1.012,0.027
11/26/2023 22:35:26.160,-0.027,-1.012,0.027
11/26/2023 22:35:26.170,-0.027,-1.012,0.027
11/26/2023 22:35:26.180,-0.027,-1.012,0.027
11/26/2023 22:35:26.190,-0.027,-1.012,0.027
11/26/2023 22:35:26.200,-0.027,-1.012,0.027
11/26/2023 22:35:26.210,-0.027,-1.012,0.027
11/26/2023 22:35:26.220,-0.027,-1.012,0.027
11/26/2023 22:35:26.230,-0.027,-1.012,0.027
11/26/2023 22:35:26.240,-0.027,-1.012,0.027
11/26/2023 22:35:26.250,-0.027,-1.012,0.027
11/26/2023 22:35:26.260,-0.027,-1.012,0.027
11/26/2023 22:35:26.270,-0.027,-1.012,0.027
11/26/2023 22:35:26.280,-0.027,-1.012,0.027
11/26/2023 22:35:26.290,-0.027,-1.012,0.027
11/26/2023 22:35:26.300,-0.027,-1.012,0.027
11/26/2023 22:35:26.310,-0.027,-1.012,0.027
11/26/2023 22:35:26.320,-0.027,-1.012,0.027
11/26/2023 22:35:26.330,-0.027,-1.012,0.027
11/26/2023 22:35:26.340,-0.027,-1.012,0.027
11/26/2023 22:35:26.350,-0.027,-1.012,0.027
11/26/2023 22:35:26.360,-0.027,-1.012,0.027
11/26/2023 22:35:26.370,-0.027,-1.012,0.027
11/26/2023 22:35:26.380,-0.027,-1.012,0.027
11/26/2023 22:35:26.390,-0.027,-1.012,0.027
11/26/2023 22:35:26.400,-0.027,-1.012,0.027
11/26/2023 22:35:26.410,-0.027,-1.012,0.027
11/26/2023 22:35:26.420,-0.027,-1.012,0.027
11/26/2023 22:35:26.430,-0.027,-1.012,0.027
11/26/2023 22:35:26.440,-0.027,-1.012,0.027
11/26/2023 22:35:26.450,-0.027,-1.012,0.027
11/26/2023 22:35:26.460,-0.027,-1.012,0.027
11/26/2023 22:35:26.470,-0.027,-1.012,0.027
11/26/2023 22:35:26.480,-0.027,-1.012,0.027
11/26/2023 22:35:26.490,-0.027,-1.012,0.027
11/26/2023 22:35:26.500,-0.027,-1.012,0.027
11/26/2023 22:35:26.510,-0.027,-1.012,0.027
11/26/2023 22:35:26.520,-0.027,-1.012,0.027
11/26/2023 22:35:26.530,-0.027,-1.012,0.027
11/26/2023 22:35:26.540,-0.027,-1.012,0.027
11/26/2023 22:35:26.550,-0.027,-1.012,0.027
11/26/2023 22:35:26.560,-0.027,-1.012,0.027
11/26/2023 22:35:26.570,-0.027,-1.012,0.027
11/26/2023 22:35:26.580,-0.027,-1.012,0.027
11/26/2023 22:35:26.590,-0.027,-1.012,0.027
11/26/2023 22:35:26.600,-0.027,-1.012,0.027
11/26/2023 22:35:26.610,-0.027,-1.012,0.027
11/26/2023 22:35:26.620,-0.027,-1.012,0.027
11/26/2023 22:35:26.630,-0.027,-1.012,0.027
11/26/2023 22:35:26.640,-0.027,-1.012,0.027
11/26/2023 22:35:26.650,-0.027,-1.012,0.027
11/26/2023 22:35:26.660,-0.027,-1.012,0.027
11/26/2023 22:35:26.670,-0.027,-1.012,0.027
11/26/2023 22:35:26.680,-0.027,-1.012,0.027
11/26/2023 22:35:26.690,-0.027,-1.012,0.027
11/26/2023 22:35:26.700,-0.027,-1.012,0.027
11/26/2023 22:35:26.710,-0.027,-1.012,0.027
11/26/2023 22:35:26.720,-0.027,-1.012,0.027
11/26/2023 22:35:26.730,-0.027,-1.012,0.027
11/26/2023 22:35:26.740,-0.027,-1.012,0.027
11/26/2023 22:35:26.750,-0.027,-1.012,0.027
11/26/2023 22:35:26.760,-0.027,-1.012,0.027
11/26/2023 22:35:26.770,-0.027,-1.012,0.027
11/26/2023 22:35:26.780,-0.027,-1.012,0.027
11/26/2023 22:35:26.790,-0.027,-1.012,0.027
11/26/2023 22:35:26.800,-0.027,-1.012,0.027
11/26/2023 22:35:26.810,-0.027,-1.012,0.027
11/26/2023 22:35:26.820,-0.027,-1.012,0.027
11/26/2023 22:35:26.830,-0.027,-1.012,0.027
11/26/2023 22:35:26.840,-0.027,-1.012,0.027
11/26/2023 22:35:26.850,-0.027,-1.012,0.027
11/26/2023 22:35:26.860,-0.027,-1.012,0.027
11/26/2023 22:35:26.870,-0.027,-1.012,0.027
11/26/2023 22:35:26.880,-0.027,-1.012,0.027
11/26/2023 22:35:26.890,-0.027,-1.012,0.027
11/26/2023 22:35:26.900,-0.027,-1.012,0.027
11/26/2023 22:35:26.910,-0.027,-1.012,0.027
11/26/2023 22:35:26.920,-0.027,-1.012,0.027
11/26/2023 22:35:26.930,-0.027,-1.012,0.027
11/26/2023 22:35:26.940,-0.027,-1.012,0.027
11/26/2023 22:35:26.950,-0.027,-1.012,0.027
11/26/2023 22:35:26.960,-0.027,-1.012,0.027
11/26/2023 22:35:26.970,-0.027,-1.012,0.027
11/26/2023 22:35:26.980,-0.027,-1.012,0.027
11/26/2023 22:35:26.990,-0.027,-1.012,0.027
11/26/2023 22:35:27.000,0,0,0
11/26/2023 22:35:27.010,0,0,0
11/26/2023 22:35:27.020,0,0,0
11/26/2023 22:35:27.030,0,0,0
11/26/2023 22:35:27.040,0,0,0
11/26/2023 22:35:27.050,0,0,0
11/26/2023 22:35:27.060,0,0,0
11/26/2023 22:35:27.070,0,0,0
11/26/2023 22:35:27.080,0,0,0
11/26/2023 22:35:27.090,0,0,0
11/26/2023 22:35:27.100,0,0,0
11/26/2023 22:35:27.110,0,0,0
11/26/2023 22:35:27.120,0,0,0
11/26/2023 22:35:27.130,0,0,0
11/26/2023 22:35:27.140,0,0,0
11/26/2023 22:35:27.150,0,0,0
11/26/2023 22:35:27.160,0,0,0
11/26/2023 22:35:27.170,0,0,0
11/26/2023 22:35:27.180,0,0,0
11/26/2023 22:35:27.190,0,0,0
11/26/2023 22:35:27.200,0,0,0
11/26/2023 22:35:27.210,0,0,0
11/26/2023 22:35:27.220,0,0,0
11/26/2023 22:35:27.230,0,0,0
11/26/2023 22:35:27.240,0,0,0
11/26/2023 22:35:27.250,0,0,0
11/26/2023 22:35:27.260,0,0,0
11/26/2023 22:35:27.270,0,0,0
11/26/2023 22:35:27.280,0,0,0
11/26/2023 22:35:27.290,0,0,0
11/26/2023 22:35:27.300,0,0,0
11/26/2023 22:35:27.310,0,0,0
11/26/2023 22:35:27.320,0,0,0
11/26/2023 22:35:27.330,0,0,0
11/26/2023 22:35:27.340,0,0,0
11/26/2023 22:35:27.350,0,0,0
11/26/2023 22:35:27.360,0,0,0
11/26/2023 22:35:27.370,0,0,0
11/26/2023 22:35:27.380,0,0,0
11/26/2023 22:35:27.390,0,0,0
11/26/2023 22:35:27.400,0,0,0
11/26/2023 22:35:27.410,0,0,0
11/26/2023 22:35:27.420,0,0,0
11/26/2023 22:35:27.430,0,0,0
11/26/2023 22:35:27.440,0,0,0
11/26/2023 22:35:27.450,0,0,0
11/26/2023 22:35:27.460,0,0,0
11/26/2023 22:35:27.470,0,0,0
11/26/2023 22:35:27.480,0,0,0
11/26/2023 22:35:27.490,0,0,0
11/26/2023 22:35:27.500,0,0,0
11/26/2023 22:35:27.510,0,0,0
11/26/2023 22:35:27.520,0,0,0
11/26/2023 22:35:27.530,0,0,0
11/26/2023 22:35:27.540,0,0,0
11/26/2023 22:35:27.550,0,0,0
11/26/2023 22:35:27.560,0,0,0
11/26/2023 22:35:27.570,0,0,0
11/26/2023 22:35:27.580,0,0,0
11/26/2023 22:35:27.590,0,0,0
11/26/2023 22:35:27.600,0,0,0
11/26/2023 22:35:27.610,0,0,0
11/26/2023 22:35:27.620,0,0,0
11/26/2023 22:35:27.630,0,0,0
11/26/2023 22:35:27.640,0,0,0
11/26/2023 22:35:27.650,0,0,0
11/26/2023 22:35:27.660,0,0,0
11/26/2023 22:35:27.670,0,0,0
11/26/2023 22:35:27.680,0,0,0
11/26/2023 22:35:27.690,0,0,0
11/26/2023 22:35:27.700,0,0,0
11/26/2023 22:35:27.710,0,0,0
11/26/2023 22:35:27.720,0,0,0
11/26/2023 22:35:27.730,0,0,0
11/26/2023 22:35:27.740,0,0,0
11/26/2023 22:35:27.750,0,0,0
11/26/2023 22:35:27.760,0,0,0
11/26/2023 22:35:27.770,0,0,0
11/26/2023 22:35:27.780,0,0,0
11/26/2023 22:35:27.790,0,0,0
11/26/2023 22:35:27.800,0,0,0
11/26/2023 22:35:27.810,0,0,0
11/26/2023 22:35:27.820,0,0,0
11/26/2023 22:35:27.830,0,0,0
11/26/2023 22:35:27.840,0,0,0
11/26/2023 22:35:27.850,0,0,0
11/26/2023 22:35:27.860,0,0,0
11/26/2023 22:35:27.870,0,0,0
11/26/2023 22:35:27.880,0,0,0
11/26/2023 22:35:27.890,0,0,0
11/26/2023 22:35:27.900,0,0,0
11/26/2023 22:35:27.910,0,0,0
11/26/2023 22:35:27.920,0,0,0
11/26/2023 22:35:27.930,0,0,0
11/26/2023 22:35:27.940,0,0,0
11/26/2023 22:35:27.950,0,0,0
11/26/2023 22:35:27.960,0,0,0
11/26/2023 22:35:27.970,0,0,0
11/26/2023 22:35:27.980,0,0,0
11/26/2023 22:35:27.990,0,0,0
11/26/2023 22:35:28.000,0,0,0
11/26/2023 22:35:28.010,0,0,0
11/26/2023 22:35:28.020,0,0,0
11/26/2023 22:35:28.030,0,0,0
11/26/2023 22:35:28.040,0,0,0
11/26/2023 22:35:28.050,0,0,0
