------------ Data File Created By ActiGraph GT3X+ ActiLife v6.13.4 Firmware v1.7.2 date format M/d/yyyy at 100 Hz  Filter Normal -----------
Serial Number: TAS1H50200818
Start Time 22:29:00
Start Date 11/26/2023
Epoch Period (hh:mm:ss) 00:00:00
Download Time 22:30:05
Download Date 11/26/2023
Current Memory Address: 0
Current Battery Voltage: 4.15     Mode = 12
--------------------------------------------------
Timestamp,Accelerometer X,Accelerometer Y,Accelerometer Z
11/26/2023 22:29:00.000,-0.07,-0.961,0.383
11/26/2023 22:29:00.010,-0.047,-0.969,0.395
11/26/2023 22:29:00.020,-0.027,-0.984,0.406
11/26/2023 22:29:00.030,-0.012,-0.992,0.422
11/26/2023 22:29:00.040,0,-1.004,0.441
11/26/2023 22:29:00.050,0.016,-1.008,0.453
11/26/2023 22:29:00.060,0.027,-1.012,0.461
11/26/2023 22:29:00.070,0.051,-1.008,0.461
11/26/2023 22:29:00.080,0.117,-0.992,0.457
11/26/2023 22:29:00.090,0.184,-0.98,0.457
11/26/2023 22:29:00.100,0.238,-0.949,0.434
11/26/2023 22:29:00.110,0.27,-0.887,0.41
11/26/2023 22:29:00.120,0.281,-0.801,0.398
11/26/2023 22:29:00.130,0.273,-0.703,0.41
11/26/2023 22:29:00.140,0.215,-0.609,0.453
11/26/2023 22:29:00.150,0.113,-0.527,0.5
11/26/2023 22:29:00.160,-0.012,-0.453,0.523
11/26/2023 22:29:00.170,-0.129,-0.414,0.512
11/26/2023 22:29:00.180,-0.227,-0.41,0.492
11/26/2023 22:29:00.190,-0.285,-0.484,0.492
11/26/2023 22:29:00.200,-0.305,-0.648,0.527
11/26/2023 22:29:00.210,-0.309,-0.848,0.574
11/26/2023 22:29:00.220,-0.293,-1.027,0.621
11/26/2023 22:29:00.230,-0.246,-1.156,0.66
11/26/2023 22:29:00.240,-0.152,-1.234,0.676
11/26/2023 22:29:00.250,-0.027,-1.238,0.637
11/26/2023 22:29:00.260,0.094,-1.16,0.531
11/26/2023 22:29:00.270,0.156,-1.07,0.414
11/26/2023 22:29:00.280,0.133,-1.059,0.375
11/26/2023 22:29:00.290,0.074,-1.145,0.406
11/26/2023 22:29:00.300,0.02,-1.25,0.434
11/26/2023 22:29:00.310,-0.016,-1.27,0.398
11/26/2023 22:29:00.320,-0.031,-1.203,0.313
11/26/2023 22:29:00.330,-0.051,-1.113,0.211
11/26/2023 22:29:00.340,-0.074,-1.059,0.145
11/26/2023 22:29:00.350,-0.117,-1.059,0.113
11/26/2023 22:29:00.360,-0.168,-1.074,0.113
11/26/2023 22:29:00.370,-0.203,-1.07,0.121
11/26/2023 22:29:00.380,-0.223,-1.027,0.117
11/26/2023 22:29:00.390,-0.203,-0.949,0.109
11/26/2023 22:29:00.400,-0.141,-0.863,0.121
11/26/2023 22:29:00.410,-0.066,-0.793,0.145
11/26/2023 22:29:00.420,-0.004,-0.75,0.203
11/26/2023 22:29:00.430,0.055,-0.738,0.313
11/26/2023 22:29:00.440,0.117,-0.762,0.438
11/26/2023 22:29:00.450,0.16,-0.828,0.551
11/26/2023 22:29:00.460,0.164,-0.918,0.602
11/26/2023 22:29:00.470,0.137,-0.996,0.602
11/26/2023 22:29:00.480,0.113,-1.035,0.555
11/26/2023 22:29:00.490,0.066,-1.031,0.473
11/26/2023 22:29:00.500,-0.023,-0.988,0.363
11/26/2023 22:29:00.510,-0.09,-0.934,0.297
11/26/2023 22:29:00.520,-0.145,-0.887,0.262
11/26/2023 22:29:00.530,-0.207,-0.848,0.246
11/26/2023 22:29:00.540,-0.277,-0.816,0.234
11/26/2023 22:29:00.550,-0.305,-0.805,0.223
11/26/2023 22:29:00.560,-0.305,-0.836,0.211
11/26/2023 22:29:00.570,-0.285,-0.895,0.211
11/26/2023 22:29:00.580,-0.266,-0.973,0.223
11/26/2023 22:29:00.590,-0.246,-1.035,0.25
11/26/2023 22:29:00.600,-0.215,-1.082,0.27
11/26/2023 22:29:00.610,-0.172,-1.105,0.293
11/26/2023 22:29:00.620,-0.129,-1.094,0.305
11/26/2023 22:29:00.630,-0.113,-1.063,0.313
11/26/2023 22:29:00.640,-0.109,-1.008,0.316
11/26/2023 22:29:00.650,-0.102,-0.965,0.324
11/26/2023 22:29:00.660,-0.109,-0.922,0.32
11/26/2023 22:29:00.670,-0.121,-0.902,0.309
11/26/2023 22:29:00.680,-0.137,-0.895,0.281
11/26/2023 22:29:00.690,-0.156,-0.891,0.258
11/26/2023 22:29:00.700,-0.176,-0.895,0.242
11/26/2023 22:29:00.710,-0.195,-0.906,0.242
11/26/2023 22:29:00.720,-0.203,-0.93,0.25
11/26/2023 22:29:00.730,-0.211,-0.957,0.258
11/26/2023 22:29:00.740,-0.211,-0.977,0.277
11/26/2023 22:29:00.750,-0.203,-0.988,0.301
11/26/2023 22:29:00.760,-0.199,-0.996,0.32
11/26/2023 22:29:00.770,-0.219,-1.008,0.336
11/26/2023 22:29:00.780,-0.223,-1.012,0.367
11/26/2023 22:29:00.790,-0.234,-1.012,0.383
11/26/2023 22:29:00.800,-0.242,-0.996,0.395
11/26/2023 22:29:00.810,-0.273,-0.984,0.395
11/26/2023 22:29:00.820,-0.305,-0.992,0.402
11/26/2023 22:29:00.830,-0.328,-1.023,0.406
11/26/2023 22:29:00.840,-0.355,-1.063,0.418
11/26/2023 22:29:00.850,-0.371,-1.102,0.422
11/26/2023 22:29:00.860,-0.371,-1.133,0.422
11/26/2023 22:29:00.870,-0.359,-1.164,0.426
11/26/2023 22:29:00.880,-0.344,-1.199,0.434
11/26/2023 22:29:00.890,-0.297,-1.234,0.438
11/26/2023 22:29:00.900,-0.227,-1.254,0.43
11/26/2023 22:29:00.910,-0.164,-1.25,0.395
11/26/2023 22:29:00.920,-0.09,-1.219,0.324
11/26/2023 22:29:00.930,-0.012,-1.211,0.258
11/26/2023 22:29:00.940,0.043,-1.234,0.207
11/26/2023 22:29:00.950,0.066,-1.285,0.168
11/26/2023 22:29:00.960,0.133,-1.305,0.137
11/26/2023 22:29:00.970,0.207,-1.277,0.094
11/26/2023 22:29:00.980,0.273,-1.199,0.027
11/26/2023 22:29:00.990,0.301,-1.094,-0.023
11/26/2023 22:29:01.000,0.301,-0.98,-0.016
11/26/2023 22:29:01.010,0.34,-0.906,0.035
11/26/2023 22:29:01.020,0.352,-0.891,0.102
11/26/2023 22:29:01.030,0.305,-0.934,0.168
11/26/2023 22:29:01.040,0.262,-1.004,0.227
11/26/2023 22:29:01.050,0.23,-1.07,0.266
11/26/2023 22:29:01.060,0.184,-1.117,0.27
11/26/2023 22:29:01.070,0.152,-1.152,0.262
11/26/2023 22:29:01.080,0.145,-1.176,0.25
11/26/2023 22:29:01.090,0.129,-1.148,0.223
11/26/2023 22:29:01.100,0.086,-1.066,0.184
11/26/2023 22:29:01.110,0.035,-0.969,0.168
11/26/2023 22:29:01.120,-0.012,-0.879,0.172
11/26/2023 22:29:01.130,-0.047,-0.816,0.184
11/26/2023 22:29:01.140,-0.059,-0.777,0.207
11/26/2023 22:29:01.150,-0.047,-0.734,0.242
11/26/2023 22:29:01.160,-0.027,-0.707,0.289
11/26/2023 22:29:01.170,-0.004,-0.699,0.336
11/26/2023 22:29:01.180,0.031,-0.711,0.379
11/26/2023 22:29:01.190,0.055,-0.73,0.414
11/26/2023 22:29:01.200,0.07,-0.738,0.438
11/26/2023 22:29:01.210,0.086,-0.738,0.457
11/26/2023 22:29:01.220,0.082,-0.723,0.461
11/26/2023 22:29:01.230,0.063,-0.703,0.457
11/26/2023 22:29:01.240,0.027,-0.695,0.434
11/26/2023 22:29:01.250,-0.027,-0.695,0.41
11/26/2023 22:29:01.260,-0.082,-0.699,0.379
11/26/2023 22:29:01.270,-0.133,-0.703,0.363
11/26/2023 22:29:01.280,-0.188,-0.699,0.348
11/26/2023 22:29:01.290,-0.246,-0.691,0.348
11/26/2023 22:29:01.300,-0.277,-0.68,0.352
11/26/2023 22:29:01.310,-0.289,-0.695,0.363
11/26/2023 22:29:01.320,-0.289,-0.727,0.383
11/26/2023 22:29:01.330,-0.266,-0.789,0.418
11/26/2023 22:29:01.340,-0.246,-0.867,0.469
11/26/2023 22:29:01.350,-0.23,-0.953,0.523
11/26/2023 22:29:01.360,-0.18,-1.012,0.555
11/26/2023 22:29:01.370,-0.105,-1.055,0.559
11/26/2023 22:29:01.380,-0.035,-1.074,0.543
11/26/2023 22:29:01.390,0.02,-1.082,0.551
11/26/2023 22:29:01.400,0.066,-1.109,0.598
11/26/2023 22:29:01.410,0.098,-1.156,0.68
11/26/2023 22:29:01.420,0.098,-1.211,0.793
11/26/2023 22:29:01.430,0.055,-1.223,0.836
11/26/2023 22:29:01.440,0.004,-1.172,0.766
11/26/2023 22:29:01.450,-0.031,-1.094,0.613
11/26/2023 22:29:01.460,-0.023,-1.035,0.434
11/26/2023 22:29:01.470,0.023,-1.035,0.281
11/26/2023 22:29:01.480,0.063,-1.102,0.168
11/26/2023 22:29:01.490,0.082,-1.211,0.098
11/26/2023 22:29:01.500,0.16,-1.336,0.07
11/26/2023 22:29:01.510,0.277,-1.449,0.055
11/26/2023 22:29:01.520,0.336,-1.516,-0.023
11/26/2023 22:29:01.530,0.371,-1.527,-0.121
11/26/2023 22:29:01.540,0.352,-1.516,-0.168
11/26/2023 22:29:01.550,0.277,-1.508,-0.152
11/26/2023 22:29:01.560,0.254,-1.445,-0.094
11/26/2023 22:29:01.570,0.266,-1.32,-0.023
11/26/2023 22:29:01.580,0.262,-1.129,0.051
11/26/2023 22:29:01.590,0.219,-0.926,0.117
11/26/2023 22:29:01.600,0.184,-0.738,0.191
11/26/2023 22:29:01.610,0.16,-0.609,0.246
11/26/2023 22:29:01.620,0.125,-0.539,0.281
11/26/2023 22:29:01.630,0.109,-0.508,0.297
11/26/2023 22:29:01.640,0.117,-0.516,0.316
11/26/2023 22:29:01.650,0.125,-0.57,0.316
11/26/2023 22:29:01.660,0.129,-0.645,0.293
11/26/2023 22:29:01.670,0.133,-0.727,0.25
11/26/2023 22:29:01.680,0.137,-0.816,0.195
11/26/2023 22:29:01.690,0.129,-0.891,0.16
11/26/2023 22:29:01.700,0.117,-0.953,0.141
11/26/2023 22:29:01.710,0.105,-0.98,0.133
11/26/2023 22:29:01.720,0.074,-0.973,0.125
11/26/2023 22:29:01.730,0.027,-0.926,0.113
11/26/2023 22:29:01.740,-0.023,-0.867,0.109
11/26/2023 22:29:01.750,-0.07,-0.813,0.102
11/26/2023 22:29:01.760,-0.113,-0.785,0.109
11/26/2023 22:29:01.770,-0.141,-0.773,0.133
11/26/2023 22:29:01.780,-0.152,-0.785,0.16
11/26/2023 22:29:01.790,-0.164,-0.828,0.199
11/26/2023 22:29:01.800,-0.156,-0.879,0.238
11/26/2023 22:29:01.810,-0.145,-0.91,0.281
11/26/2023 22:29:01.820,-0.141,-0.926,0.324
11/26/2023 22:29:01.830,-0.133,-0.926,0.34
11/26/2023 22:29:01.840,-0.137,-0.914,0.34
11/26/2023 22:29:01.850,-0.129,-0.898,0.336
11/26/2023 22:29:01.860,-0.117,-0.887,0.34
11/26/2023 22:29:01.870,-0.117,-0.906,0.352
11/26/2023 22:29:01.880,-0.133,-0.938,0.375
11/26/2023 22:29:01.890,-0.145,-0.977,0.379
11/26/2023 22:29:01.900,-0.164,-1.012,0.367
11/26/2023 22:29:01.910,-0.203,-1.039,0.344
11/26/2023 22:29:01.920,-0.223,-1.039,0.305
11/26/2023 22:29:01.930,-0.223,-1.031,0.289
11/26/2023 22:29:01.940,-0.25,-1.043,0.293
11/26/2023 22:29:01.950,-0.262,-1.078,0.313
11/26/2023 22:29:01.960,-0.242,-1.145,0.352
11/26/2023 22:29:01.970,-0.211,-1.215,0.387
11/26/2023 22:29:01.980,-0.188,-1.273,0.414
11/26/2023 22:29:01.990,-0.168,-1.297,0.426
11/26/2023 22:29:02.000,-0.137,-1.277,0.43
11/26/2023 22:29:02.010,-0.09,-1.258,0.426
11/26/2023 22:29:02.020,-0.07,-1.234,0.418
11/26/2023 22:29:02.030,-0.078,-1.172,0.391
11/26/2023 22:29:02.040,-0.059,-1.09,0.352
11/26/2023 22:29:02.050,-0.047,-1.043,0.262
11/26/2023 22:29:02.060,-0.047,-1.027,0.133
11/26/2023 22:29:02.070,-0.012,-1.008,0.012
11/26/2023 22:29:02.080,0.035,-0.961,-0.055
11/26/2023 22:29:02.090,0.074,-0.926,-0.078
11/26/2023 22:29:02.100,0.125,-0.969,-0.012
11/26/2023 22:29:02.110,0.168,-1.066,0.109
11/26/2023 22:29:02.120,0.191,-1.18,0.254
11/26/2023 22:29:02.130,0.207,-1.273,0.375
11/26/2023 22:29:02.140,0.23,-1.336,0.449
11/26/2023 22:29:02.150,0.293,-1.371,0.48
11/26/2023 22:29:02.160,0.34,-1.383,0.465
11/26/2023 22:29:02.170,0.348,-1.371,0.434
11/26/2023 22:29:02.180,0.324,-1.328,0.395
11/26/2023 22:29:02.190,0.254,-1.234,0.344
11/26/2023 22:29:02.200,0.16,-1.121,0.277
11/26/2023 22:29:02.210,0.059,-0.984,0.234
11/26/2023 22:29:02.220,-0.023,-0.852,0.191
11/26/2023 22:29:02.230,-0.113,-0.723,0.176
11/26/2023 22:29:02.240,-0.184,-0.625,0.18
11/26/2023 22:29:02.250,-0.234,-0.547,0.195
11/26/2023 22:29:02.260,-0.258,-0.492,0.211
11/26/2023 22:29:02.270,-0.246,-0.477,0.227
11/26/2023 22:29:02.280,-0.195,-0.512,0.254
11/26/2023 22:29:02.290,-0.129,-0.57,0.285
11/26/2023 22:29:02.300,-0.074,-0.656,0.309
11/26/2023 22:29:02.310,0.016,-0.766,0.391
11/26/2023 22:29:02.320,0.066,-0.801,0.434
11/26/2023 22:29:02.330,0.07,-0.766,0.449
11/26/2023 22:29:02.340,0.07,-0.742,0.477
11/26/2023 22:29:02.350,0.051,-0.746,0.484
11/26/2023 22:29:02.360,0.02,-0.754,0.469
11/26/2023 22:29:02.370,-0.012,-0.73,0.43
11/26/2023 22:29:02.380,-0.059,-0.699,0.41
11/26/2023 22:29:02.390,-0.094,-0.668,0.414
11/26/2023 22:29:02.400,-0.121,-0.68,0.422
11/26/2023 22:29:02.410,-0.145,-0.707,0.422
11/26/2023 22:29:02.420,-0.152,-0.738,0.418
11/26/2023 22:29:02.430,-0.145,-0.785,0.434
11/26/2023 22:29:02.440,-0.133,-0.855,0.465
11/26/2023 22:29:02.450,-0.121,-0.906,0.453
11/26/2023 22:29:02.460,-0.047,-0.938,0.441
11/26/2023 22:29:02.470,0.027,-1,0.469
11/26/2023 22:29:02.480,0.059,-1.082,0.531
11/26/2023 22:29:02.490,0.063,-1.156,0.629
11/26/2023 22:29:02.500,0.039,-1.211,0.73
11/26/2023 22:29:02.510,0.016,-1.238,0.781
11/26/2023 22:29:02.520,-0.035,-1.234,0.773
11/26/2023 22:29:02.530,-0.137,-1.203,0.703
11/26/2023 22:29:02.540,-0.207,-1.148,0.598
11/26/2023 22:29:02.550,-0.238,-1.102,0.488
11/26/2023 22:29:02.560,-0.227,-1.078,0.344
11/26/2023 22:29:02.570,-0.172,-1.094,0.234
11/26/2023 22:29:02.580,-0.059,-1.133,0.188
11/26/2023 22:29:02.590,0.117,-1.191,0.18
11/26/2023 22:29:02.600,0.301,-1.273,0.191
11/26/2023 22:29:02.610,0.406,-1.344,0.168
11/26/2023 22:29:02.620,0.496,-1.355,0.113
11/26/2023 22:29:02.630,0.496,-1.441,0.051
11/26/2023 22:29:02.640,0.441,-1.508,0.027
11/26/2023 22:29:02.650,0.398,-1.414,0.02
11/26/2023 22:29:02.660,0.352,-1.199,-0.004
11/26/2023 22:29:02.670,0.297,-0.984,0.016
11/26/2023 22:29:02.680,0.23,-0.875,0.094
11/26/2023 22:29:02.690,0.137,-0.863,0.211
11/26/2023 22:29:02.700,0.031,-0.844,0.297
11/26/2023 22:29:02.710,-0.039,-0.785,0.336
11/26/2023 22:29:02.720,-0.047,-0.711,0.34
11/26/2023 22:29:02.730,-0.023,-0.652,0.313
11/26/2023 22:29:02.740,0.023,-0.652,0.301
11/26/2023 22:29:02.750,0.07,-0.723,0.316
11/26/2023 22:29:02.760,0.113,-0.84,0.336
11/26/2023 22:29:02.770,0.133,-0.918,0.32
11/26/2023 22:29:02.780,0.156,-0.957,0.273
11/26/2023 22:29:02.790,0.18,-0.965,0.215
11/26/2023 22:29:02.800,0.199,-0.945,0.176
11/26/2023 22:29:02.810,0.191,-0.918,0.152
11/26/2023 22:29:02.820,0.152,-0.895,0.148
11/26/2023 22:29:02.830,0.09,-0.867,0.152
11/26/2023 22:29:02.840,0.016,-0.82,0.148
11/26/2023 22:29:02.850,-0.059,-0.762,0.141
11/26/2023 22:29:02.860,-0.105,-0.703,0.121
11/26/2023 22:29:02.870,-0.141,-0.672,0.121
11/26/2023 22:29:02.880,-0.164,-0.684,0.133
11/26/2023 22:29:02.890,-0.172,-0.723,0.156
11/26/2023 22:29:02.900,-0.164,-0.785,0.191
11/26/2023 22:29:02.910,-0.137,-0.84,0.223
11/26/2023 22:29:02.920,-0.113,-0.883,0.254
11/26/2023 22:29:02.930,-0.094,-0.926,0.293
11/26/2023 22:29:02.940,-0.09,-0.957,0.328
11/26/2023 22:29:02.950,-0.09,-0.98,0.352
11/26/2023 22:29:02.960,-0.086,-0.988,0.387
11/26/2023 22:29:02.970,-0.113,-1,0.414
11/26/2023 22:29:02.980,-0.18,-1.008,0.434
11/26/2023 22:29:02.990,-0.223,-1.008,0.445
11/26/2023 22:29:03.000,-0.25,-0.988,0.445
11/26/2023 22:29:03.010,-0.289,-0.996,0.449
11/26/2023 22:29:03.020,-0.348,-1.039,0.457
11/26/2023 22:29:03.030,-0.383,-1.109,0.477
11/26/2023 22:29:03.040,-0.406,-1.172,0.48
11/26/2023 22:29:03.050,-0.41,-1.207,0.441
11/26/2023 22:29:03.060,-0.352,-1.207,0.363
11/26/2023 22:29:03.070,-0.203,-1.207,0.355
11/26/2023 22:29:03.080,-0.082,-1.184,0.328
11/26/2023 22:29:03.090,0.008,-1.191,0.316
11/26/2023 22:29:03.100,0.117,-1.203,0.32
11/26/2023 22:29:03.110,0.141,-1.219,0.391
11/26/2023 22:29:03.120,0.141,-1.195,0.406
11/26/2023 22:29:03.130,0.148,-1.094,0.285
11/26/2023 22:29:03.140,0.121,-0.992,0.137
11/26/2023 22:29:03.150,0.102,-0.93,0.031
11/26/2023 22:29:03.160,0.082,-0.938,0
11/26/2023 22:29:03.170,0.109,-1,0.063
11/26/2023 22:29:03.180,0.129,-1.102,0.191
11/26/2023 22:29:03.190,0.137,-1.211,0.324
11/26/2023 22:29:03.200,0.145,-1.281,0.406
11/26/2023 22:29:03.210,0.148,-1.32,0.414
11/26/2023 22:29:03.220,0.168,-1.367,0.387
11/26/2023 22:29:03.230,0.199,-1.371,0.363
11/26/2023 22:29:03.240,0.219,-1.34,0.355
11/26/2023 22:29:03.250,0.195,-1.277,0.344
11/26/2023 22:29:03.260,0.133,-1.188,0.32
11/26/2023 22:29:03.270,0.063,-1.074,0.285
11/26/2023 22:29:03.280,-0.02,-0.953,0.234
11/26/2023 22:29:03.290,-0.09,-0.832,0.195
11/26/2023 22:29:03.300,-0.156,-0.727,0.18
11/26/2023 22:29:03.310,-0.215,-0.641,0.156
11/26/2023 22:29:03.320,-0.262,-0.578,0.148
11/26/2023 22:29:03.330,-0.281,-0.543,0.148
11/26/2023 22:29:03.340,-0.27,-0.535,0.156
11/26/2023 22:29:03.350,-0.242,-0.547,0.191
11/26/2023 22:29:03.360,-0.203,-0.574,0.23
11/26/2023 22:29:03.370,-0.141,-0.605,0.285
11/26/2023 22:29:03.380,-0.078,-0.641,0.344
11/26/2023 22:29:03.390,-0.035,-0.68,0.402
11/26/2023 22:29:03.400,-0.012,-0.73,0.449
11/26/2023 22:29:03.410,0,-0.762,0.469
11/26/2023 22:29:03.420,-0.004,-0.77,0.461
11/26/2023 22:29:03.430,-0.023,-0.762,0.445
11/26/2023 22:29:03.440,-0.051,-0.77,0.438
11/26/2023 22:29:03.450,-0.082,-0.781,0.434
11/26/2023 22:29:03.460,-0.094,-0.777,0.43
11/26/2023 22:29:03.470,-0.117,-0.758,0.418
11/26/2023 22:29:03.480,-0.148,-0.738,0.402
11/26/2023 22:29:03.490,-0.176,-0.766,0.414
11/26/2023 22:29:03.500,-0.211,-0.824,0.438
11/26/2023 22:29:03.510,-0.211,-0.902,0.43
11/26/2023 22:29:03.520,-0.145,-0.938,0.352
11/26/2023 22:29:03.530,-0.07,-0.98,0.297
11/26/2023 22:29:03.540,-0.035,-1.105,0.332
11/26/2023 22:29:03.550,-0.008,-1.273,0.43
11/26/2023 22:29:03.560,0.035,-1.441,0.551
11/26/2023 22:29:03.570,0.086,-1.539,0.668
11/26/2023 22:29:03.580,0.098,-1.555,0.754
11/26/2023 22:29:03.590,0.078,-1.453,0.738
11/26/2023 22:29:03.600,0.047,-1.254,0.617
11/26/2023 22:29:03.610,0.004,-1.055,0.48
11/26/2023 22:29:03.620,-0.023,-0.969,0.391
11/26/2023 22:29:03.630,-0.012,-1.031,0.32
11/26/2023 22:29:03.640,0.082,-1.215,0.25
11/26/2023 22:29:03.650,0.172,-1.305,0.414
11/26/2023 22:29:03.660,0.25,-1.262,0.41
11/26/2023 22:29:03.670,0.293,-1.223,0.297
11/26/2023 22:29:03.680,0.289,-1.199,0.211
11/26/2023 22:29:03.690,0.328,-1.148,0.203
11/26/2023 22:29:03.700,0.32,-1.098,0.145
11/26/2023 22:29:03.710,0.242,-1.02,0.063
11/26/2023 22:29:03.720,0.176,-0.914,0.016
11/26/2023 22:29:03.730,0.117,-0.852,0
11/26/2023 22:29:03.740,0.047,-0.898,0.035
11/26/2023 22:29:03.750,-0.031,-0.996,0.086
11/26/2023 22:29:03.760,-0.09,-1.063,0.129
11/26/2023 22:29:03.770,-0.117,-1.055,0.156
11/26/2023 22:29:03.780,-0.109,-0.977,0.172
11/26/2023 22:29:03.790,-0.066,-0.887,0.207
11/26/2023 22:29:03.800,0,-0.824,0.246
11/26/2023 22:29:03.810,0.074,-0.797,0.289
11/26/2023 22:29:03.820,0.133,-0.813,0.324
11/26/2023 22:29:03.830,0.176,-0.844,0.344
11/26/2023 22:29:03.840,0.188,-0.855,0.324
11/26/2023 22:29:03.850,0.191,-0.852,0.289
11/26/2023 22:29:03.860,0.191,-0.84,0.27
11/26/2023 22:29:03.870,0.172,-0.824,0.262
11/26/2023 22:29:03.880,0.137,-0.793,0.242
11/26/2023 22:29:03.890,0.078,-0.758,0.219
11/26/2023 22:29:03.900,0,-0.727,0.188
11/26/2023 22:29:03.910,-0.082,-0.711,0.152
11/26/2023 22:29:03.920,-0.141,-0.707,0.125
11/26/2023 22:29:03.930,-0.168,-0.723,0.117
11/26/2023 22:29:03.940,-0.18,-0.762,0.137
11/26/2023 22:29:03.950,-0.176,-0.813,0.152
11/26/2023 22:29:03.960,-0.148,-0.863,0.18
11/26/2023 22:29:03.970,-0.133,-0.891,0.211
11/26/2023 22:29:03.980,-0.121,-0.906,0.254
11/26/2023 22:29:03.990,-0.098,-0.906,0.301
11/26/2023 22:29:04.000,-0.078,-0.891,0.332
11/26/2023 22:29:04.010,-0.055,-0.879,0.352
11/26/2023 22:29:04.020,-0.055,-0.871,0.355
11/26/2023 22:29:04.030,-0.066,-0.887,0.301
11/26/2023 22:29:04.040,-0.098,-0.926,0.352
11/26/2023 22:29:04.050,-0.137,-1.016,0.43
11/26/2023 22:29:04.060,-0.211,-1.07,0.422
11/26/2023 22:29:04.070,-0.242,-1.102,0.41
11/26/2023 22:29:04.080,-0.293,-1.109,0.402
11/26/2023 22:29:04.090,-0.344,-1.133,0.402
11/26/2023 22:29:04.100,-0.367,-1.152,0.422
11/26/2023 22:29:04.110,-0.359,-1.199,0.445
11/26/2023 22:29:04.120,-0.316,-1.238,0.441
11/26/2023 22:29:04.130,-0.246,-1.238,0.418
11/26/2023 22:29:04.140,-0.168,-1.215,0.398
11/26/2023 22:29:04.150,-0.125,-1.207,0.387
11/26/2023 22:29:04.160,-0.094,-1.211,0.402
11/26/2023 22:29:04.170,-0.043,-1.203,0.398
11/26/2023 22:29:04.180,0.027,-1.188,0.348
11/26/2023 22:29:04.190,0.082,-1.164,0.203
11/26/2023 22:29:04.200,0.129,-1.094,0.066
11/26/2023 22:29:04.210,0.137,-1.016,-0.012
11/26/2023 22:29:04.220,0.148,-1.012,-0.02
11/26/2023 22:29:04.230,0.188,-1.07,0.051
11/26/2023 22:29:04.240,0.219,-1.145,0.168
11/26/2023 22:29:04.250,0.215,-1.172,0.289
11/26/2023 22:29:04.260,0.199,-1.156,0.391
11/26/2023 22:29:04.270,0.203,-1.164,0.453
11/26/2023 22:29:04.280,0.184,-1.211,0.434
11/26/2023 22:29:04.290,0.148,-1.242,0.383
11/26/2023 22:29:04.300,0.125,-1.246,0.34
11/26/2023 22:29:04.310,0.094,-1.223,0.305
11/26/2023 22:29:04.320,0.043,-1.172,0.266
11/26/2023 22:29:04.330,-0.016,-1.098,0.23
11/26/2023 22:29:04.340,-0.07,-1.023,0.207
11/26/2023 22:29:04.350,-0.121,-0.945,0.188
11/26/2023 22:29:04.360,-0.152,-0.863,0.176
11/26/2023 22:29:04.370,-0.164,-0.781,0.184
11/26/2023 22:29:04.380,-0.164,-0.715,0.191
11/26/2023 22:29:04.390,-0.148,-0.656,0.211
11/26/2023 22:29:04.400,-0.117,-0.617,0.234
11/26/2023 22:29:04.410,-0.098,-0.605,0.258
11/26/2023 22:29:04.420,-0.082,-0.598,0.289
11/26/2023 22:29:04.430,-0.059,-0.594,0.324
11/26/2023 22:29:04.440,-0.043,-0.59,0.352
11/26/2023 22:29:04.450,-0.035,-0.59,0.371
11/26/2023 22:29:04.460,-0.035,-0.605,0.391
11/26/2023 22:29:04.470,-0.047,-0.633,0.406
11/26/2023 22:29:04.480,-0.066,-0.668,0.414
11/26/2023 22:29:04.490,-0.105,-0.695,0.43
11/26/2023 22:29:04.500,-0.152,-0.711,0.438
11/26/2023 22:29:04.510,-0.164,-0.703,0.441
11/26/2023 22:29:04.520,-0.164,-0.668,0.406
11/26/2023 22:29:04.530,-0.184,-0.629,0.324
11/26/2023 22:29:04.540,-0.207,-0.637,0.293
11/26/2023 22:29:04.550,-0.25,-0.719,0.363
11/26/2023 22:29:04.560,-0.285,-0.855,0.461
11/26/2023 22:29:04.570,-0.27,-0.996,0.496
11/26/2023 22:29:04.580,-0.176,-1.086,0.445
11/26/2023 22:29:04.590,-0.063,-1.152,0.414
11/26/2023 22:29:04.600,-0.016,-1.238,0.445
11/26/2023 22:29:04.610,0.035,-1.34,0.527
11/26/2023 22:29:04.620,0.078,-1.441,0.648
11/26/2023 22:29:04.630,0.117,-1.488,0.742
11/26/2023 22:29:04.640,0.156,-1.449,0.734
11/26/2023 22:29:04.650,0.176,-1.344,0.641
11/26/2023 22:29:04.660,0.172,-1.23,0.512
11/26/2023 22:29:04.670,0.207,-1.172,0.41
11/26/2023 22:29:04.680,0.25,-1.176,0.336
11/26/2023 22:29:04.690,0.27,-1.223,0.293
11/26/2023 22:29:04.700,0.324,-1.27,0.297
11/26/2023 22:29:04.710,0.41,-1.313,0.336
11/26/2023 22:29:04.720,0.426,-1.324,0.32
11/26/2023 22:29:04.730,0.363,-1.266,0.23
11/26/2023 22:29:04.740,0.277,-1.148,0.125
11/26/2023 22:29:04.750,0.164,-1.016,0.02
11/26/2023 22:29:04.760,0.066,-0.918,-0.047
11/26/2023 22:29:04.770,0.016,-0.891,-0.051
11/26/2023 22:29:04.780,-0.016,-0.941,0.008
11/26/2023 22:29:04.790,-0.035,-1.012,0.09
11/26/2023 22:29:04.800,-0.031,-1.031,0.152
11/26/2023 22:29:04.810,0.02,-0.988,0.195
11/26/2023 22:29:04.820,0.07,-0.926,0.234
11/26/2023 22:29:04.830,0.113,-0.863,0.273
11/26/2023 22:29:04.840,0.168,-0.824,0.32
11/26/2023 22:29:04.850,0.219,-0.801,0.371
11/26/2023 22:29:04.860,0.254,-0.789,0.383
11/26/2023 22:29:04.870,0.254,-0.789,0.375
11/26/2023 22:29:04.880,0.242,-0.785,0.332
11/26/2023 22:29:04.890,0.219,-0.777,0.27
11/26/2023 22:29:04.900,0.191,-0.781,0.215
11/26/2023 22:29:04.910,0.16,-0.785,0.176
11/26/2023 22:29:04.920,0.117,-0.773,0.148
11/26/2023 22:29:04.930,0.074,-0.766,0.129
11/26/2023 22:29:04.940,0.031,-0.75,0.113
11/26/2023 22:29:04.950,-0.008,-0.723,0.086
11/26/2023 22:29:04.960,-0.047,-0.699,0.066
11/26/2023 22:29:04.970,-0.086,-0.688,0.066
11/26/2023 22:29:04.980,-0.094,-0.711,0.086
11/26/2023 22:29:04.990,-0.086,-0.766,0.125
11/26/2023 22:29:05.000,-0.09,-0.832,0.172
11/26/2023 22:29:05.010,-0.066,-0.887,0.227
11/26/2023 22:29:05.020,-0.055,-0.922,0.27
11/26/2023 22:29:05.030,-0.043,-0.93,0.305
11/26/2023 22:29:05.040,-0.035,-0.918,0.348
11/26/2023 22:29:05.050,-0.059,-0.902,0.383
11/26/2023 22:29:05.060,-0.105,-0.891,0.406
11/26/2023 22:29:05.070,-0.117,-0.883,0.43
11/26/2023 22:29:05.080,-0.125,-0.887,0.449
11/26/2023 22:29:05.090,-0.145,-0.914,0.457
11/26/2023 22:29:05.100,-0.184,-0.98,0.48
11/26/2023 22:29:05.110,-0.238,-1.086,0.492
11/26/2023 22:29:05.120,-0.277,-1.188,0.449
11/26/2023 22:29:05.130,-0.281,-1.277,0.445
11/26/2023 22:29:05.140,-0.285,-1.344,0.418
11/26/2023 22:29:05.150,-0.32,-1.367,0.352
11/26/2023 22:29:05.160,-0.328,-1.344,0.277
11/26/2023 22:29:05.170,-0.277,-1.344,0.254
11/26/2023 22:29:05.180,-0.18,-1.355,0.27
11/26/2023 22:29:05.190,-0.07,-1.281,0.309
11/26/2023 22:29:05.200,0.004,-1.188,0.352
11/26/2023 22:29:05.210,0.086,-1.117,0.355
11/26/2023 22:29:05.220,0.199,-1.051,0.281
11/26/2023 22:29:05.230,0.324,-0.969,0.188
11/26/2023 22:29:05.240,0.363,-0.859,0.113
11/26/2023 22:29:05.250,0.344,-0.773,0.063
11/26/2023 22:29:05.260,0.313,-0.785,0.09
11/26/2023 22:29:05.270,0.266,-0.887,0.207
11/26/2023 22:29:05.280,0.227,-1.066,0.355
11/26/2023 22:29:05.290,0.215,-1.223,0.457
11/26/2023 22:29:05.300,0.199,-1.324,0.453
11/26/2023 22:29:05.310,0.195,-1.418,0.398
11/26/2023 22:29:05.320,0.215,-1.469,0.348
11/26/2023 22:29:05.330,0.223,-1.418,0.293
11/26/2023 22:29:05.340,0.219,-1.262,0.25
11/26/2023 22:29:05.350,0.199,-1.156,0.254
11/26/2023 22:29:05.360,0.148,-1.078,0.262
11/26/2023 22:29:05.370,0.082,-1.004,0.258
11/26/2023 22:29:05.380,0.004,-0.902,0.23
11/26/2023 22:29:05.390,-0.063,-0.777,0.188
11/26/2023 22:29:05.400,-0.145,-0.695,0.148
11/26/2023 22:29:05.410,-0.203,-0.645,0.141
11/26/2023 22:29:05.420,-0.238,-0.617,0.148
11/26/2023 22:29:05.430,-0.266,-0.613,0.168
11/26/2023 22:29:05.440,-0.246,-0.629,0.211
11/26/2023 22:29:05.450,-0.227,-0.688,0.262
11/26/2023 22:29:05.460,-0.184,-0.75,0.316
11/26/2023 22:29:05.470,-0.117,-0.793,0.359
11/26/2023 22:29:05.480,-0.07,-0.816,0.383
11/26/2023 22:29:05.490,-0.039,-0.824,0.41
11/26/2023 22:29:05.500,-0.012,-0.813,0.441
11/26/2023 22:29:05.510,0,-0.789,0.449
11/26/2023 22:29:05.520,-0.023,-0.762,0.434
11/26/2023 22:29:05.530,-0.066,-0.734,0.422
11/26/2023 22:29:05.540,-0.109,-0.723,0.414
11/26/2023 22:29:05.550,-0.137,-0.703,0.402
11/26/2023 22:29:05.560,-0.176,-0.684,0.383
11/26/2023 22:29:05.570,-0.211,-0.664,0.367
11/26/2023 22:29:05.580,-0.234,-0.664,0.391
11/26/2023 22:29:05.590,-0.266,-0.684,0.418
11/26/2023 22:29:05.600,-0.289,-0.723,0.457
11/26/2023 22:29:05.610,-0.313,-0.77,0.457
11/26/2023 22:29:05.620,-0.273,-0.793,0.41
11/26/2023 22:29:05.630,-0.188,-0.813,0.352
11/26/2023 22:29:05.640,-0.102,-0.887,0.313
11/26/2023 22:29:05.650,-0.035,-1.027,0.355
11/26/2023 22:29:05.660,0.02,-1.227,0.477
11/26/2023 22:29:05.670,0.086,-1.422,0.66
11/26/2023 22:29:05.680,0.137,-1.551,0.82
11/26/2023 22:29:05.690,0.125,-1.59,0.844
11/26/2023 22:29:05.700,0.117,-1.508,0.707
11/26/2023 22:29:05.710,0.129,-1.363,0.523
11/26/2023 22:29:05.720,0.18,-1.254,0.367
11/26/2023 22:29:05.730,0.207,-1.223,0.242
11/26/2023 22:29:05.740,0.203,-1.27,0.164
11/26/2023 22:29:05.750,0.281,-1.328,0.16
11/26/2023 22:29:05.760,0.391,-1.371,0.168
11/26/2023 22:29:05.770,0.41,-1.398,0.141
11/26/2023 22:29:05.780,0.328,-1.363,0.055
11/26/2023 22:29:05.790,0.234,-1.262,-0.031
11/26/2023 22:29:05.800,0.188,-1.105,-0.059
11/26/2023 22:29:05.810,0.145,-0.977,-0.066
11/26/2023 22:29:05.820,0.109,-0.906,-0.035
11/26/2023 22:29:05.830,0.066,-0.926,0.043
11/26/2023 22:29:05.840,0.023,-0.988,0.137
11/26/2023 22:29:05.850,-0.012,-1.012,0.203
11/26/2023 22:29:05.860,0,-0.973,0.215
11/26/2023 22:29:05.870,0.027,-0.895,0.223
11/26/2023 22:29:05.880,0.066,-0.824,0.242
11/26/2023 22:29:05.890,0.102,-0.781,0.273
11/26/2023 22:29:05.900,0.145,-0.758,0.293
11/26/2023 22:29:05.910,0.18,-0.762,0.313
11/26/2023 22:29:05.920,0.203,-0.777,0.316
11/26/2023 22:29:05.930,0.199,-0.789,0.297
11/26/2023 22:29:05.940,0.176,-0.777,0.258
11/26/2023 22:29:05.950,0.145,-0.77,0.215
11/26/2023 22:29:05.960,0.133,-0.785,0.191
11/26/2023 22:29:05.970,0.105,-0.805,0.18
11/26/2023 22:29:05.980,0.07,-0.813,0.168
11/26/2023 22:29:05.990,0.012,-0.797,0.141
11/26/2023 22:29:06.000,-0.059,-0.754,0.113
11/26/2023 22:29:06.010,-0.113,-0.715,0.098
11/26/2023 22:29:06.020,-0.148,-0.699,0.094
11/26/2023 22:29:06.030,-0.164,-0.719,0.109
11/26/2023 22:29:06.040,-0.18,-0.777,0.133
11/26/2023 22:29:06.050,-0.148,-0.859,0.203
11/26/2023 22:29:06.060,-0.113,-0.895,0.238
11/26/2023 22:29:06.070,-0.074,-0.875,0.25
11/26/2023 22:29:06.080,-0.051,-0.895,0.277
11/26/2023 22:29:06.090,-0.023,-0.922,0.313
11/26/2023 22:29:06.100,-0.016,-0.945,0.332
11/26/2023 22:29:06.110,-0.039,-0.945,0.344
11/26/2023 22:29:06.120,-0.086,-0.93,0.355
11/26/2023 22:29:06.130,-0.137,-0.926,0.367
11/26/2023 22:29:06.140,-0.148,-0.906,0.379
11/26/2023 22:29:06.150,-0.164,-0.902,0.402
11/26/2023 22:29:06.160,-0.211,-0.926,0.426
11/26/2023 22:29:06.170,-0.258,-0.992,0.465
11/26/2023 22:29:06.180,-0.305,-1.098,0.504
11/26/2023 22:29:06.190,-0.355,-1.199,0.508
11/26/2023 22:29:06.200,-0.391,-1.277,0.465
11/26/2023 22:29:06.210,-0.395,-1.336,0.395
11/26/2023 22:29:06.220,-0.328,-1.363,0.367
11/26/2023 22:29:06.230,-0.25,-1.359,0.379
11/26/2023 22:29:06.240,-0.191,-1.309,0.375
11/26/2023 22:29:06.250,-0.125,-1.242,0.367
11/26/2023 22:29:06.260,-0.063,-1.234,0.418
11/26/2023 22:29:06.270,0.004,-1.211,0.41
11/26/2023 22:29:06.280,0.094,-1.184,0.27
11/26/2023 22:29:06.290,0.195,-1.137,0.105
11/26/2023 22:29:06.300,0.273,-1.098,0.012
11/26/2023 22:29:06.310,0.324,-1.047,0
11/26/2023 22:29:06.320,0.324,-1.023,0.051
11/26/2023 22:29:06.330,0.324,-1.012,0.141
11/26/2023 22:29:06.340,0.305,-1.035,0.25
11/26/2023 22:29:06.350,0.281,-1.063,0.355
11/26/2023 22:29:06.360,0.254,-1.094,0.434
11/26/2023 22:29:06.370,0.242,-1.113,0.426
11/26/2023 22:29:06.380,0.223,-1.156,0.383
11/26/2023 22:29:06.390,0.199,-1.18,0.34
11/26/2023 22:29:06.400,0.188,-1.168,0.293
11/26/2023 22:29:06.410,0.164,-1.129,0.266
11/26/2023 22:29:06.420,0.117,-1.09,0.227
11/26/2023 22:29:06.430,0.035,-1.055,0.199
11/26/2023 22:29:06.440,-0.023,-1.012,0.195
11/26/2023 22:29:06.450,-0.086,-0.941,0.176
11/26/2023 22:29:06.460,-0.148,-0.852,0.148
11/26/2023 22:29:06.470,-0.184,-0.742,0.129
11/26/2023 22:29:06.480,-0.195,-0.645,0.129
11/26/2023 22:29:06.490,-0.188,-0.598,0.145
11/26/2023 22:29:06.500,-0.18,-0.578,0.176
11/26/2023 22:29:06.510,-0.145,-0.598,0.23
11/26/2023 22:29:06.520,-0.109,-0.621,0.277
11/26/2023 22:29:06.530,-0.063,-0.648,0.328
11/26/2023 22:29:06.540,-0.023,-0.688,0.383
11/26/2023 22:29:06.550,0.004,-0.719,0.441
11/26/2023 22:29:06.560,0.016,-0.746,0.48
11/26/2023 22:29:06.570,-0.004,-0.762,0.508
11/26/2023 22:29:06.580,-0.063,-0.777,0.516
11/26/2023 22:29:06.590,-0.109,-0.781,0.5
11/26/2023 22:29:06.600,-0.156,-0.766,0.457
11/26/2023 22:29:06.610,-0.211,-0.738,0.398
11/26/2023 22:29:06.620,-0.246,-0.727,0.324
11/26/2023 22:29:06.630,-0.273,-0.73,0.273
11/26/2023 22:29:06.640,-0.32,-0.766,0.273
11/26/2023 22:29:06.650,-0.344,-0.84,0.34
11/26/2023 22:29:06.660,-0.34,-0.93,0.426
11/26/2023 22:29:06.670,-0.313,-1,0.453
11/26/2023 22:29:06.680,-0.25,-1.035,0.449
11/26/2023 22:29:06.690,-0.18,-1.07,0.438
11/26/2023 22:29:06.700,-0.125,-1.141,0.457
11/26/2023 22:29:06.710,-0.09,-1.242,0.535
11/26/2023 22:29:06.720,-0.031,-1.344,0.633
11/26/2023 22:29:06.730,0.043,-1.426,0.723
11/26/2023 22:29:06.740,0.094,-1.414,0.723
11/26/2023 22:29:06.750,0.133,-1.328,0.613
11/26/2023 22:29:06.760,0.168,-1.246,0.469
11/26/2023 22:29:06.770,0.203,-1.223,0.367
11/26/2023 22:29:06.780,0.246,-1.246,0.297
11/26/2023 22:29:06.790,0.313,-1.262,0.258
11/26/2023 22:29:06.800,0.43,-1.246,0.219
11/26/2023 22:29:06.810,0.531,-1.254,0.207
11/26/2023 22:29:06.820,0.555,-1.293,0.188
11/26/2023 22:29:06.830,0.473,-1.281,0.129
11/26/2023 22:29:06.840,0.336,-1.207,0.078
11/26/2023 22:29:06.850,0.191,-1.059,0.008
11/26/2023 22:29:06.860,0.078,-0.922,-0.047
11/26/2023 22:29:06.870,0,-0.867,-0.035
11/26/2023 22:29:06.880,-0.051,-0.902,0.023
11/26/2023 22:29:06.890,-0.074,-0.961,0.102
11/26/2023 22:29:06.900,-0.066,-0.973,0.152
11/26/2023 22:29:06.910,-0.031,-0.945,0.184
11/26/2023 22:29:06.920,0.012,-0.895,0.219
11/26/2023 22:29:06.930,0.055,-0.848,0.258
11/26/2023 22:29:06.940,0.102,-0.828,0.301
11/26/2023 22:29:06.950,0.141,-0.84,0.332
11/26/2023 22:29:06.960,0.148,-0.871,0.344
11/26/2023 22:29:06.970,0.141,-0.906,0.328
11/26/2023 22:29:06.980,0.137,-0.922,0.277
11/26/2023 22:29:06.990,0.129,-0.91,0.219
11/26/2023 22:29:07.000,0.098,-0.906,0.164
11/26/2023 22:29:07.010,0.078,-0.895,0.148
11/26/2023 22:29:07.020,0.055,-0.859,0.133
11/26/2023 22:29:07.030,0.008,-0.82,0.121
11/26/2023 22:29:07.040,-0.039,-0.766,0.129
11/26/2023 22:29:07.050,-0.082,-0.715,0.125
11/26/2023 22:29:07.060,-0.113,-0.668,0.113
11/26/2023 22:29:07.070,-0.137,-0.652,0.109
11/26/2023 22:29:07.080,-0.145,-0.676,0.117
11/26/2023 22:29:07.090,-0.137,-0.727,0.145
11/26/2023 22:29:07.100,-0.117,-0.785,0.176
11/26/2023 22:29:07.110,-0.086,-0.836,0.199
11/26/2023 22:29:07.120,-0.055,-0.879,0.219
11/26/2023 22:29:07.130,-0.02,-0.918,0.246
11/26/2023 22:29:07.140,0.004,-0.945,0.27
11/26/2023 22:29:07.150,0.008,-0.977,0.297
11/26/2023 22:29:07.160,0.008,-0.996,0.328
11/26/2023 22:29:07.170,-0.008,-1.004,0.367
11/26/2023 22:29:07.180,-0.039,-1.02,0.398
11/26/2023 22:29:07.190,-0.094,-1.047,0.418
11/26/2023 22:29:07.200,-0.137,-1.066,0.438
11/26/2023 22:29:07.210,-0.176,-1.066,0.453
11/26/2023 22:29:07.220,-0.258,-1.047,0.449
11/26/2023 22:29:07.230,-0.336,-1.012,0.43
11/26/2023 22:29:07.240,-0.379,-1.004,0.43
11/26/2023 22:29:07.250,-0.395,-1.043,0.434
11/26/2023 22:29:07.260,-0.402,-1.109,0.434
11/26/2023 22:29:07.270,-0.363,-1.156,0.414
11/26/2023 22:29:07.280,-0.266,-1.188,0.387
11/26/2023 22:29:07.290,-0.152,-1.219,0.367
11/26/2023 22:29:07.300,-0.039,-1.23,0.352
11/26/2023 22:29:07.310,0.055,-1.23,0.328
11/26/2023 22:29:07.320,0.117,-1.238,0.332
11/26/2023 22:29:07.330,0.156,-1.234,0.254
11/26/2023 22:29:07.340,0.215,-1.184,0.129
11/26/2023 22:29:07.350,0.246,-1.098,0.02
11/26/2023 22:29:07.360,0.254,-1.02,-0.035
11/26/2023 22:29:07.370,0.234,-0.973,0
11/26/2023 22:29:07.380,0.203,-0.977,0.094
11/26/2023 22:29:07.390,0.148,-0.996,0.199
11/26/2023 22:29:07.400,0.086,-1.008,0.289
11/26/2023 22:29:07.410,0.031,-1.035,0.332
11/26/2023 22:29:07.420,0.043,-1.102,0.344
11/26/2023 22:29:07.430,0.105,-1.195,0.332
11/26/2023 22:29:07.440,0.148,-1.309,0.324
11/26/2023 22:29:07.450,0.172,-1.375,0.332
11/26/2023 22:29:07.460,0.188,-1.379,0.316
11/26/2023 22:29:07.470,0.164,-1.32,0.273
11/26/2023 22:29:07.480,0.109,-1.234,0.262
11/26/2023 22:29:07.490,0.066,-1.121,0.227
11/26/2023 22:29:07.500,-0.008,-0.988,0.195
11/26/2023 22:29:07.510,-0.074,-0.867,0.199
11/26/2023 22:29:07.520,-0.148,-0.77,0.207
11/26/2023 22:29:07.530,-0.191,-0.691,0.211
11/26/2023 22:29:07.540,-0.215,-0.609,0.211
11/26/2023 22:29:07.550,-0.215,-0.543,0.195
11/26/2023 22:29:07.560,-0.191,-0.508,0.191
11/26/2023 22:29:07.570,-0.16,-0.516,0.227
11/26/2023 22:29:07.580,-0.129,-0.559,0.285
11/26/2023 22:29:07.590,-0.094,-0.605,0.348
11/26/2023 22:29:07.600,-0.059,-0.66,0.41
11/26/2023 22:29:07.610,-0.027,-0.699,0.445
11/26/2023 22:29:07.620,0,-0.73,0.465
11/26/2023 22:29:07.630,-0.012,-0.754,0.477
11/26/2023 22:29:07.640,-0.047,-0.777,0.469
11/26/2023 22:29:07.650,-0.086,-0.781,0.438
11/26/2023 22:29:07.660,-0.125,-0.766,0.391
11/26/2023 22:29:07.670,-0.121,-0.73,0.328
11/26/2023 22:29:07.680,-0.102,-0.711,0.273
11/26/2023 22:29:07.690,-0.086,-0.73,0.266
11/26/2023 22:29:07.700,-0.066,-0.785,0.305
11/26/2023 22:29:07.710,-0.039,-0.859,0.375
11/26/2023 22:29:07.720,-0.02,-0.938,0.465
11/26/2023 22:29:07.730,0.012,-1.004,0.555
11/26/2023 22:29:07.740,0.031,-1.059,0.598
11/26/2023 22:29:07.750,0.043,-1.078,0.59
11/26/2023 22:29:07.760,0.012,-1.09,0.566
11/26/2023 22:29:07.770,-0.059,-1.117,0.555
11/26/2023 22:29:07.780,-0.156,-1.18,0.59
11/26/2023 22:29:07.790,-0.242,-1.254,0.633
11/26/2023 22:29:07.800,-0.277,-1.32,0.609
11/26/2023 22:29:07.810,-0.262,-1.363,0.527
11/26/2023 22:29:07.820,-0.195,-1.387,0.426
11/26/2023 22:29:07.830,-0.102,-1.379,0.336
11/26/2023 22:29:07.840,0.004,-1.324,0.285
11/26/2023 22:29:07.850,0.129,-1.246,0.25
11/26/2023 22:29:07.860,0.313,-1.195,0.246
11/26/2023 22:29:07.870,0.484,-1.211,0.277
11/26/2023 22:29:07.880,0.563,-1.262,0.289
11/26/2023 22:29:07.890,0.551,-1.281,0.219
11/26/2023 22:29:07.900,0.492,-1.234,0.129
11/26/2023 22:29:07.910,0.395,-1.145,0.059
11/26/2023 22:29:07.920,0.297,-1.027,0.012
11/26/2023 22:29:07.930,0.23,-0.926,-0.016
11/26/2023 22:29:07.940,0.16,-0.879,0.012
11/26/2023 22:29:07.950,0.07,-0.879,0.047
11/26/2023 22:29:07.960,-0.008,-0.891,0.074
11/26/2023 22:29:07.970,-0.063,-0.871,0.105
11/26/2023 22:29:07.980,-0.086,-0.832,0.141
11/26/2023 22:29:07.990,-0.078,-0.797,0.188
11/26/2023 22:29:08.000,-0.043,-0.77,0.242
11/26/2023 22:29:08.010,0.039,-0.762,0.289
11/26/2023 22:29:08.020,0.113,-0.77,0.301
11/26/2023 22:29:08.030,0.172,-0.809,0.297
11/26/2023 22:29:08.040,0.195,-0.863,0.293
11/26/2023 22:29:08.050,0.195,-0.922,0.27
11/26/2023 22:29:08.060,0.184,-0.945,0.234
11/26/2023 22:29:08.070,0.176,-0.934,0.199
11/26/2023 22:29:08.080,0.145,-0.926,0.164
11/26/2023 22:29:08.090,0.102,-0.895,0.137
11/26/2023 22:29:08.100,0.055,-0.852,0.113
11/26/2023 22:29:08.110,-0.004,-0.816,0.094
11/26/2023 22:29:08.120,-0.07,-0.781,0.086
11/26/2023 22:29:08.130,-0.125,-0.746,0.094
11/26/2023 22:29:08.140,-0.16,-0.707,0.098
11/26/2023 22:29:08.150,-0.18,-0.672,0.105
11/26/2023 22:29:08.160,-0.184,-0.68,0.129
11/26/2023 22:29:08.170,-0.176,-0.711,0.172
11/26/2023 22:29:08.180,-0.152,-0.758,0.215
11/26/2023 22:29:08.190,-0.129,-0.813,0.258
11/26/2023 22:29:08.200,-0.113,-0.875,0.297
11/26/2023 22:29:08.210,-0.098,-0.93,0.324
11/26/2023 22:29:08.220,-0.094,-0.965,0.344
11/26/2023 22:29:08.230,-0.105,-0.996,0.352
11/26/2023 22:29:08.240,-0.129,-1.02,0.355
11/26/2023 22:29:08.250,-0.18,-1.047,0.359
11/26/2023 22:29:08.260,-0.242,-1.074,0.379
11/26/2023 22:29:08.270,-0.285,-1.094,0.387
11/26/2023 22:29:08.280,-0.309,-1.086,0.402
11/26/2023 22:29:08.290,-0.336,-1.086,0.41
11/26/2023 22:29:08.300,-0.344,-1.102,0.418
11/26/2023 22:29:08.310,-0.352,-1.148,0.465
11/26/2023 22:29:08.320,-0.371,-1.188,0.496
11/26/2023 22:29:08.330,-0.383,-1.18,0.465
11/26/2023 22:29:08.340,-0.352,-1.148,0.422
11/26/2023 22:29:08.350,-0.258,-1.168,0.41
11/26/2023 22:29:08.360,-0.172,-1.199,0.355
11/26/2023 22:29:08.370,-0.07,-1.203,0.273
11/26/2023 22:29:08.380,0.016,-1.148,0.234
11/26/2023 22:29:08.390,0.051,-1.188,0.301
11/26/2023 22:29:08.400,0.145,-1.254,0.254
11/26/2023 22:29:08.410,0.266,-1.258,0.129
11/26/2023 22:29:08.420,0.313,-1.184,0.016
11/26/2023 22:29:08.430,0.32,-1.121,-0.039
11/26/2023 22:29:08.440,0.344,-1.094,-0.012
11/26/2023 22:29:08.450,0.367,-1.105,0.09
11/26/2023 22:29:08.460,0.359,-1.164,0.234
11/26/2023 22:29:08.470,0.316,-1.219,0.383
11/26/2023 22:29:08.480,0.301,-1.219,0.441
11/26/2023 22:29:08.490,0.285,-1.18,0.41
11/26/2023 22:29:08.500,0.238,-1.16,0.355
11/26/2023 22:29:08.510,0.215,-1.172,0.328
11/26/2023 22:29:08.520,0.191,-1.188,0.285
11/26/2023 22:29:08.530,0.152,-1.188,0.234
11/26/2023 22:29:08.540,0.09,-1.156,0.191
11/26/2023 22:29:08.550,0.023,-1.082,0.164
11/26/2023 22:29:08.560,-0.047,-0.988,0.152
11/26/2023 22:29:08.570,-0.098,-0.883,0.148
11/26/2023 22:29:08.580,-0.137,-0.789,0.145
11/26/2023 22:29:08.590,-0.152,-0.703,0.141
11/26/2023 22:29:08.600,-0.125,-0.621,0.129
11/26/2023 22:29:08.610,-0.137,-0.563,0.145
11/26/2023 22:29:08.620,-0.148,-0.551,0.191
11/26/2023 22:29:08.630,-0.129,-0.551,0.266
11/26/2023 22:29:08.640,-0.105,-0.57,0.316
11/26/2023 22:29:08.650,-0.082,-0.602,0.363
11/26/2023 22:29:08.660,-0.051,-0.617,0.398
11/26/2023 22:29:08.670,-0.035,-0.625,0.414
11/26/2023 22:29:08.680,-0.039,-0.652,0.43
11/26/2023 22:29:08.690,-0.051,-0.707,0.473
11/26/2023 22:29:08.700,-0.047,-0.742,0.492
11/26/2023 22:29:08.710,-0.066,-0.73,0.461
11/26/2023 22:29:08.720,-0.102,-0.703,0.426
11/26/2023 22:29:08.730,-0.152,-0.703,0.391
11/26/2023 22:29:08.740,-0.195,-0.738,0.375
11/26/2023 22:29:08.750,-0.219,-0.805,0.395
11/26/2023 22:29:08.760,-0.25,-0.902,0.402
11/26/2023 22:29:08.770,-0.234,-0.984,0.414
11/26/2023 22:29:08.780,-0.188,-1.07,0.418
11/26/2023 22:29:08.790,-0.152,-1.145,0.43
11/26/2023 22:29:08.800,-0.137,-1.223,0.469
11/26/2023 22:29:08.810,-0.125,-1.262,0.523
11/26/2023 22:29:08.820,-0.09,-1.281,0.555
11/26/2023 22:29:08.830,-0.063,-1.305,0.598
11/26/2023 22:29:08.840,-0.055,-1.293,0.625
11/26/2023 22:29:08.850,-0.023,-1.211,0.582
11/26/2023 22:29:08.860,0.023,-1.105,0.496
11/26/2023 22:29:08.870,0.082,-1.023,0.383
11/26/2023 22:29:08.880,0.16,-1,0.281
11/26/2023 22:29:08.890,0.227,-1.035,0.211
11/26/2023 22:29:08.900,0.309,-1.082,0.18
11/26/2023 22:29:08.910,0.41,-1.125,0.176
11/26/2023 22:29:08.920,0.461,-1.184,0.129
11/26/2023 22:29:08.930,0.449,-1.25,0.02
11/26/2023 22:29:08.940,0.434,-1.32,-0.063
11/26/2023 22:29:08.950,0.43,-1.363,-0.063
11/26/2023 22:29:08.960,0.383,-1.375,-0.035
11/26/2023 22:29:08.970,0.301,-1.324,0
11/26/2023 22:29:08.980,0.25,-1.23,0.059
11/26/2023 22:29:08.990,0.219,-1.117,0.141
11/26/2023 22:29:09.000,0.156,-0.984,0.234
11/26/2023 22:29:09.010,0.121,-0.844,0.336
11/26/2023 22:29:09.020,0.086,-0.719,0.387
11/26/2023 22:29:09.030,0.07,-0.633,0.395
11/26/2023 22:29:09.040,0.074,-0.602,0.383
11/26/2023 22:29:09.050,0.098,-0.633,0.355
11/26/2023 22:29:09.060,0.121,-0.711,0.324
11/26/2023 22:29:09.070,0.117,-0.828,0.27
11/26/2023 22:29:09.080,0.102,-0.938,0.223
11/26/2023 22:29:09.090,0.113,-0.965,0.16
11/26/2023 22:29:09.100,0.121,-0.938,0.098
11/26/2023 22:29:09.110,0.125,-0.934,0.059
11/26/2023 22:29:09.120,0.117,-0.949,0.063
11/26/2023 22:29:09.130,0.086,-0.965,0.074
11/26/2023 22:29:09.140,0.047,-0.922,0.082
11/26/2023 22:29:09.150,-0.004,-0.832,0.063
11/26/2023 22:29:09.160,-0.059,-0.758,0.059
11/26/2023 22:29:09.170,-0.109,-0.73,0.063
11/26/2023 22:29:09.180,-0.145,-0.715,0.07
11/26/2023 22:29:09.190,-0.152,-0.719,0.102
11/26/2023 22:29:09.200,-0.152,-0.723,0.133
11/26/2023 22:29:09.210,-0.148,-0.746,0.172
11/26/2023 22:29:09.220,-0.148,-0.773,0.215
11/26/2023 22:29:09.230,-0.145,-0.813,0.246
11/26/2023 22:29:09.240,-0.141,-0.844,0.27
11/26/2023 22:29:09.250,-0.125,-0.863,0.285
11/26/2023 22:29:09.260,-0.141,-0.879,0.277
11/26/2023 22:29:09.270,-0.16,-0.895,0.262
11/26/2023 22:29:09.280,-0.148,-0.918,0.285
11/26/2023 22:29:09.290,-0.141,-0.961,0.328
11/26/2023 22:29:09.300,-0.156,-1.016,0.363
11/26/2023 22:29:09.310,-0.188,-1.082,0.391
11/26/2023 22:29:09.320,-0.215,-1.145,0.406
11/26/2023 22:29:09.330,-0.246,-1.188,0.395
11/26/2023 22:29:09.340,-0.328,-1.246,0.359
11/26/2023 22:29:09.350,-0.375,-1.305,0.328
11/26/2023 22:29:09.360,-0.391,-1.344,0.273
11/26/2023 22:29:09.370,-0.352,-1.328,0.246
11/26/2023 22:29:09.380,-0.316,-1.281,0.242
11/26/2023 22:29:09.390,-0.254,-1.258,0.266
11/26/2023 22:29:09.400,-0.148,-1.246,0.328
11/26/2023 22:29:09.410,-0.004,-1.23,0.363
11/26/2023 22:29:09.420,0.109,-1.223,0.328
11/26/2023 22:29:09.430,0.215,-1.172,0.238
11/26/2023 22:29:09.440,0.32,-1.063,0.156
11/26/2023 22:29:09.450,0.359,-0.926,0.078
11/26/2023 22:29:09.460,0.379,-0.883,0.074
11/26/2023 22:29:09.470,0.391,-0.957,0.152
11/26/2023 22:29:09.480,0.41,-1.07,0.262
11/26/2023 22:29:09.490,0.406,-1.184,0.395
11/26/2023 22:29:09.500,0.363,-1.254,0.488
11/26/2023 22:29:09.510,0.328,-1.305,0.496
11/26/2023 22:29:09.520,0.277,-1.332,0.434
11/26/2023 22:29:09.530,0.215,-1.352,0.379
11/26/2023 22:29:09.540,0.184,-1.352,0.363
11/26/2023 22:29:09.550,0.145,-1.313,0.328
11/26/2023 22:29:09.560,0.086,-1.223,0.254
11/26/2023 22:29:09.570,0.016,-1.098,0.176
11/26/2023 22:29:09.580,-0.063,-0.973,0.129
11/26/2023 22:29:09.590,-0.125,-0.844,0.102
11/26/2023 22:29:09.600,-0.164,-0.727,0.09
11/26/2023 22:29:09.610,-0.18,-0.621,0.098
11/26/2023 22:29:09.620,-0.176,-0.555,0.121
11/26/2023 22:29:09.630,-0.184,-0.531,0.152
11/26/2023 22:29:09.640,-0.184,-0.535,0.188
11/26/2023 22:29:09.650,-0.176,-0.57,0.234
11/26/2023 22:29:09.660,-0.156,-0.613,0.285
11/26/2023 22:29:09.670,-0.121,-0.652,0.32
11/26/2023 22:29:09.680,-0.074,-0.676,0.352
11/26/2023 22:29:09.690,-0.031,-0.699,0.379
11/26/2023 22:29:09.700,0.004,-0.734,0.406
11/26/2023 22:29:09.710,0.02,-0.75,0.426
11/26/2023 22:29:09.720,0.027,-0.758,0.438
11/26/2023 22:29:09.730,0.031,-0.766,0.445
11/26/2023 22:29:09.740,0.016,-0.777,0.453
11/26/2023 22:29:09.750,-0.02,-0.785,0.457
11/26/2023 22:29:09.760,-0.07,-0.773,0.465
11/26/2023 22:29:09.770,-0.105,-0.754,0.453
11/26/2023 22:29:09.780,-0.125,-0.75,0.453
11/26/2023 22:29:09.790,-0.16,-0.785,0.484
11/26/2023 22:29:09.800,-0.203,-0.832,0.527
11/26/2023 22:29:09.810,-0.254,-0.871,0.551
11/26/2023 22:29:09.820,-0.277,-0.898,0.531
11/26/2023 22:29:09.830,-0.266,-0.961,0.508
11/26/2023 22:29:09.840,-0.238,-1.051,0.496
11/26/2023 22:29:09.850,-0.184,-1.172,0.52
11/26/2023 22:29:09.860,-0.109,-1.301,0.582
11/26/2023 22:29:09.870,-0.035,-1.383,0.664
11/26/2023 22:29:09.880,0.039,-1.395,0.695
11/26/2023 22:29:09.890,0.098,-1.355,0.668
11/26/2023 22:29:09.900,0.145,-1.277,0.57
11/26/2023 22:29:09.910,0.203,-1.191,0.434
11/26/2023 22:29:09.920,0.254,-1.16,0.352
11/26/2023 22:29:09.930,0.262,-1.188,0.297
11/26/2023 22:29:09.940,0.32,-1.219,0.277
11/26/2023 22:29:09.950,0.402,-1.25,0.258
11/26/2023 22:29:09.960,0.453,-1.277,0.195
11/26/2023 22:29:09.970,0.434,-1.297,0.086
11/26/2023 22:29:09.980,0.371,-1.285,0.02
11/26/2023 22:29:09.990,0.262,-1.258,0.004
11/26/2023 22:29:10.000,0.145,-1.164,-0.02
11/26/2023 22:29:10.010,0.098,-1.043,-0.031
11/26/2023 22:29:10.020,0.055,-0.941,-0.016
11/26/2023 22:29:10.030,-0.004,-0.898,0.039
11/26/2023 22:29:10.040,-0.031,-0.891,0.133
11/26/2023 22:29:10.050,-0.02,-0.879,0.23
11/26/2023 22:29:10.060,0.023,-0.863,0.301
11/26/2023 22:29:10.070,0.082,-0.832,0.344
11/26/2023 22:29:10.080,0.164,-0.809,0.371
11/26/2023 22:29:10.090,0.223,-0.801,0.371
11/26/2023 22:29:10.100,0.258,-0.797,0.355
11/26/2023 22:29:10.110,0.258,-0.797,0.324
11/26/2023 22:29:10.120,0.227,-0.797,0.273
11/26/2023 22:29:10.130,0.184,-0.805,0.215
11/26/2023 22:29:10.140,0.145,-0.82,0.176
11/26/2023 22:29:10.150,0.121,-0.813,0.152
11/26/2023 22:29:10.160,0.098,-0.801,0.129
11/26/2023 22:29:10.170,0.07,-0.773,0.105
11/26/2023 22:29:10.180,0.043,-0.75,0.086
11/26/2023 22:29:10.190,0.012,-0.73,0.078
11/26/2023 22:29:10.200,-0.035,-0.719,0.082
11/26/2023 22:29:10.210,-0.059,-0.719,0.09
11/26/2023 22:29:10.220,-0.07,-0.738,0.109
11/26/2023 22:29:10.230,-0.07,-0.766,0.121
11/26/2023 22:29:10.240,-0.055,-0.813,0.16
11/26/2023 22:29:10.250,-0.039,-0.859,0.191
11/26/2023 22:29:10.260,-0.02,-0.898,0.223
11/26/2023 22:29:10.270,-0.012,-0.922,0.25
11/26/2023 22:29:10.280,-0.02,-0.938,0.277
11/26/2023 22:29:10.290,-0.051,-0.938,0.301
11/26/2023 22:29:10.300,-0.078,-0.926,0.328
11/26/2023 22:29:10.310,-0.121,-0.922,0.359
11/26/2023 22:29:10.320,-0.176,-0.945,0.402
11/26/2023 22:29:10.330,-0.195,-0.988,0.426
11/26/2023 22:29:10.340,-0.246,-1.055,0.43
11/26/2023 22:29:10.350,-0.371,-1.125,0.414
11/26/2023 22:29:10.360,-0.449,-1.172,0.402
11/26/2023 22:29:10.370,-0.484,-1.195,0.363
11/26/2023 22:29:10.380,-0.566,-1.238,0.313
11/26/2023 22:29:10.390,-0.602,-1.246,0.273
11/26/2023 22:29:10.400,-0.578,-1.262,0.242
11/26/2023 22:29:10.410,-0.484,-1.297,0.25
11/26/2023 22:29:10.420,-0.348,-1.297,0.266
11/26/2023 22:29:10.430,-0.227,-1.281,0.262
11/26/2023 22:29:10.440,-0.137,-1.27,0.27
11/26/2023 22:29:10.450,-0.023,-1.211,0.273
11/26/2023 22:29:10.460,0.109,-1.168,0.285
11/26/2023 22:29:10.470,0.203,-1.141,0.25
11/26/2023 22:29:10.480,0.262,-1.066,0.141
11/26/2023 22:29:10.490,0.301,-0.949,0.031
11/26/2023 22:29:10.500,0.313,-0.914,0
11/26/2023 22:29:10.510,0.363,-1.023,0.059
11/26/2023 22:29:10.520,0.414,-1.18,0.168
11/26/2023 22:29:10.530,0.422,-1.316,0.316
11/26/2023 22:29:10.540,0.414,-1.391,0.441
11/26/2023 22:29:10.550,0.414,-1.379,0.508
11/26/2023 22:29:10.560,0.359,-1.344,0.441
11/26/2023 22:29:10.570,0.273,-1.301,0.355
11/26/2023 22:29:10.580,0.25,-1.246,0.309
11/26/2023 22:29:10.590,0.211,-1.176,0.266
11/26/2023 22:29:10.600,0.117,-1.094,0.211
11/26/2023 22:29:10.610,0.012,-1.008,0.16
11/26/2023 22:29:10.620,-0.082,-0.934,0.125
11/26/2023 22:29:10.630,-0.141,-0.855,0.102
11/26/2023 22:29:10.640,-0.184,-0.77,0.094
11/26/2023 22:29:10.650,-0.207,-0.684,0.082
11/26/2023 22:29:10.660,-0.203,-0.598,0.078
11/26/2023 22:29:10.670,-0.164,-0.543,0.094
11/26/2023 22:29:10.680,-0.117,-0.531,0.113
11/26/2023 22:29:10.690,-0.059,-0.559,0.145
11/26/2023 22:29:10.700,-0.004,-0.602,0.184
11/26/2023 22:29:10.710,0.043,-0.645,0.23
11/26/2023 22:29:10.720,0.074,-0.695,0.289
11/26/2023 22:29:10.730,0.086,-0.746,0.348
11/26/2023 22:29:10.740,0.09,-0.789,0.391
11/26/2023 22:29:10.750,0.082,-0.828,0.41
11/26/2023 22:29:10.760,0.055,-0.852,0.406
11/26/2023 22:29:10.770,0.023,-0.863,0.398
11/26/2023 22:29:10.780,-0.031,-0.867,0.391
11/26/2023 22:29:10.790,-0.102,-0.859,0.402
11/26/2023 22:29:10.800,-0.172,-0.824,0.426
11/26/2023 22:29:10.810,-0.242,-0.77,0.43
11/26/2023 22:29:10.820,-0.281,-0.723,0.398
11/26/2023 22:29:10.830,-0.273,-0.691,0.371
11/26/2023 22:29:10.840,-0.273,-0.699,0.379
11/26/2023 22:29:10.850,-0.277,-0.75,0.387
11/26/2023 22:29:10.860,-0.203,-0.801,0.371
11/26/2023 22:29:10.870,-0.074,-0.848,0.367
11/26/2023 22:29:10.880,0.027,-0.926,0.426
11/26/2023 22:29:10.890,0.117,-1.047,0.551
11/26/2023 22:29:10.900,0.223,-1.219,0.688
11/26/2023 22:29:10.910,0.313,-1.418,0.832
11/26/2023 22:29:10.920,0.313,-1.578,0.902
11/26/2023 22:29:10.930,0.242,-1.633,0.832
11/26/2023 22:29:10.940,0.16,-1.527,0.648
11/26/2023 22:29:10.950,0.121,-1.359,0.41
11/26/2023 22:29:10.960,0.125,-1.262,0.207
11/26/2023 22:29:10.970,0.129,-1.305,0.129
11/26/2023 22:29:10.980,0.156,-1.406,0.129
11/26/2023 22:29:10.990,0.27,-1.457,0.156
11/26/2023 22:29:11.000,0.332,-1.445,0.145
11/26/2023 22:29:11.010,0.332,-1.383,0.102
11/26/2023 22:29:11.020,0.262,-1.273,0.078
11/26/2023 22:29:11.030,0.145,-1.121,0.043
11/26/2023 22:29:11.040,0.039,-0.938,-0.004
11/26/2023 22:29:11.050,0,-0.781,-0.031
11/26/2023 22:29:11.060,-0.012,-0.711,-0.012
11/26/2023 22:29:11.070,-0.043,-0.727,0.043
11/26/2023 22:29:11.080,-0.078,-0.801,0.105
11/26/2023 22:29:11.090,-0.066,-0.859,0.176
11/26/2023 22:29:11.100,-0.012,-0.879,0.219
11/26/2023 22:29:11.110,0.043,-0.875,0.242
11/26/2023 22:29:11.120,0.102,-0.855,0.258
11/26/2023 22:29:11.130,0.168,-0.848,0.27
11/26/2023 22:29:11.140,0.215,-0.844,0.285
11/26/2023 22:29:11.150,0.242,-0.844,0.293
11/26/2023 22:29:11.160,0.25,-0.844,0.297
11/26/2023 22:29:11.170,0.227,-0.832,0.285
11/26/2023 22:29:11.180,0.191,-0.816,0.254
11/26/2023 22:29:11.190,0.145,-0.801,0.227
11/26/2023 22:29:11.200,0.121,-0.781,0.195
11/26/2023 22:29:11.210,0.102,-0.766,0.164
11/26/2023 22:29:11.220,0.066,-0.746,0.145
11/26/2023 22:29:11.230,0.016,-0.73,0.125
11/26/2023 22:29:11.240,-0.043,-0.707,0.113
11/26/2023 22:29:11.250,-0.086,-0.695,0.121
11/26/2023 22:29:11.260,-0.113,-0.719,0.137
11/26/2023 22:29:11.270,-0.133,-0.758,0.156
11/26/2023 22:29:11.280,-0.133,-0.82,0.188
11/26/2023 22:29:11.290,-0.098,-0.891,0.219
11/26/2023 22:29:11.300,-0.152,-0.98,0.273
11/26/2023 22:29:11.310,-0.168,-1.047,0.344
11/26/2023 22:29:11.320,-0.16,-1.039,0.375
11/26/2023 22:29:11.330,-0.188,-0.992,0.379
11/26/2023 22:29:11.340,-0.191,-0.898,0.375
11/26/2023 22:29:11.350,-0.223,-0.816,0.355
11/26/2023 22:29:11.360,-0.238,-0.773,0.367
11/26/2023 22:29:11.370,-0.207,-0.805,0.422
11/26/2023 22:29:11.380,-0.172,-0.863,0.461
11/26/2023 22:29:11.390,-0.164,-0.938,0.5
11/26/2023 22:29:11.400,-0.18,-1.008,0.492
11/26/2023 22:29:11.410,-0.211,-1.105,0.477
11/26/2023 22:29:11.420,-0.23,-1.191,0.441
11/26/2023 22:29:11.430,-0.258,-1.266,0.391
11/26/2023 22:29:11.440,-0.266,-1.336,0.344
11/26/2023 22:29:11.450,-0.234,-1.348,0.297
11/26/2023 22:29:11.460,-0.176,-1.309,0.273
11/26/2023 22:29:11.470,-0.098,-1.242,0.258
11/26/2023 22:29:11.480,-0.016,-1.219,0.305
11/26/2023 22:29:11.490,0.047,-1.238,0.371
11/26/2023 22:29:11.500,0.09,-1.238,0.34
11/26/2023 22:29:11.510,0.148,-1.199,0.234
11/26/2023 22:29:11.520,0.191,-1.105,0.113
11/26/2023 22:29:11.530,0.172,-1.031,0.043
11/26/2023 22:29:11.540,0.156,-0.953,0.023
11/26/2023 22:29:11.550,0.094,-0.898,0.027
11/26/2023 22:29:11.560,0.02,-0.957,0.098
11/26/2023 22:29:11.570,0.023,-1.047,0.211
11/26/2023 22:29:11.580,0.027,-1.129,0.285
11/26/2023 22:29:11.590,0.051,-1.219,0.301
11/26/2023 22:29:11.600,0.113,-1.289,0.285
11/26/2023 22:29:11.610,0.141,-1.398,0.301
11/26/2023 22:29:11.620,0.191,-1.484,0.352
11/26/2023 22:29:11.630,0.238,-1.527,0.391
11/26/2023 22:29:11.640,0.238,-1.488,0.391
11/26/2023 22:29:11.650,0.199,-1.328,0.344
11/26/2023 22:29:11.660,0.148,-1.102,0.273
11/26/2023 22:29:11.670,0.078,-0.879,0.203
11/26/2023 22:29:11.680,0.008,-0.723,0.168
11/26/2023 22:29:11.690,-0.047,-0.633,0.164
11/26/2023 22:29:11.700,-0.117,-0.574,0.168
11/26/2023 22:29:11.710,-0.199,-0.531,0.18
11/26/2023 22:29:11.720,-0.266,-0.496,0.195
11/26/2023 22:29:11.730,-0.305,-0.48,0.207
11/26/2023 22:29:11.740,-0.324,-0.492,0.234
11/26/2023 22:29:11.750,-0.301,-0.516,0.277
11/26/2023 22:29:11.760,-0.223,-0.551,0.309
11/26/2023 22:29:11.770,-0.133,-0.598,0.34
11/26/2023 22:29:11.780,-0.078,-0.66,0.395
11/26/2023 22:29:11.790,-0.027,-0.719,0.457
11/26/2023 22:29:11.800,0.012,-0.766,0.508
11/26/2023 22:29:11.810,0.023,-0.781,0.523
11/26/2023 22:29:11.820,0.004,-0.77,0.535
11/26/2023 22:29:11.830,-0.043,-0.754,0.531
11/26/2023 22:29:11.840,-0.07,-0.734,0.492
11/26/2023 22:29:11.850,-0.063,-0.703,0.438
11/26/2023 22:29:11.860,-0.059,-0.699,0.426
11/26/2023 22:29:11.870,-0.102,-0.746,0.48
11/26/2023 22:29:11.880,-0.172,-0.828,0.547
11/26/2023 22:29:11.890,-0.211,-0.902,0.555
11/26/2023 22:29:11.900,-0.199,-0.957,0.5
11/26/2023 22:29:11.910,-0.176,-1.023,0.445
11/26/2023 22:29:11.920,-0.172,-1.16,0.457
11/26/2023 22:29:11.930,-0.172,-1.336,0.531
11/26/2023 22:29:11.940,-0.125,-1.469,0.629
11/26/2023 22:29:11.950,-0.027,-1.496,0.688
11/26/2023 22:29:11.960,0.051,-1.422,0.656
11/26/2023 22:29:11.970,0.082,-1.297,0.563
11/26/2023 22:29:11.980,0.113,-1.211,0.488
11/26/2023 22:29:11.990,0.133,-1.223,0.453
11/26/2023 22:29:12.000,0.121,-1.27,0.402
11/26/2023 22:29:12.010,0.191,-1.289,0.348
11/26/2023 22:29:12.020,0.313,-1.281,0.313
11/26/2023 22:29:12.030,0.371,-1.27,0.262
11/26/2023 22:29:12.040,0.344,-1.25,0.184
11/26/2023 22:29:12.050,0.273,-1.184,0.113
11/26/2023 22:29:12.060,0.172,-1.086,0.066
11/26/2023 22:29:12.070,0.066,-0.984,0.027
11/26/2023 22:29:12.080,0.004,-0.902,0.004
11/26/2023 22:29:12.090,-0.012,-0.875,0.016
11/26/2023 22:29:12.100,0,-0.91,0.078
11/26/2023 22:29:12.110,-0.004,-0.945,0.148
11/26/2023 22:29:12.120,0.02,-0.957,0.223
11/26/2023 22:29:12.130,0.078,-0.934,0.285
11/26/2023 22:29:12.140,0.156,-0.895,0.336
11/26/2023 22:29:12.150,0.234,-0.852,0.375
11/26/2023 22:29:12.160,0.293,-0.824,0.402
11/26/2023 22:29:12.170,0.297,-0.82,0.414
11/26/2023 22:29:12.180,0.27,-0.809,0.406
11/26/2023 22:29:12.190,0.234,-0.797,0.363
11/26/2023 22:29:12.200,0.191,-0.773,0.301
11/26/2023 22:29:12.210,0.129,-0.762,0.219
11/26/2023 22:29:12.220,0.059,-0.777,0.156
11/26/2023 22:29:12.230,-0.004,-0.809,0.109
11/26/2023 22:29:12.240,-0.055,-0.816,0.082
11/26/2023 22:29:12.250,-0.113,-0.793,0.059
11/26/2023 22:29:12.260,-0.18,-0.762,0.051
11/26/2023 22:29:12.270,-0.215,-0.738,0.055
11/26/2023 22:29:12.280,-0.223,-0.734,0.074
11/26/2023 22:29:12.290,-0.215,-0.746,0.109
11/26/2023 22:29:12.300,-0.18,-0.766,0.152
11/26/2023 22:29:12.310,-0.168,-0.801,0.199
11/26/2023 22:29:12.320,-0.145,-0.84,0.246
11/26/2023 22:29:12.330,-0.125,-0.883,0.297
11/26/2023 22:29:12.340,-0.125,-0.914,0.336
11/26/2023 22:29:12.350,-0.141,-0.914,0.367
11/26/2023 22:29:12.360,-0.176,-0.898,0.387
11/26/2023 22:29:12.370,-0.227,-0.883,0.375
11/26/2023 22:29:12.380,-0.227,-0.855,0.359
11/26/2023 22:29:12.390,-0.207,-0.832,0.348
11/26/2023 22:29:12.400,-0.207,-0.852,0.371
11/26/2023 22:29:12.410,-0.23,-0.926,0.414
11/26/2023 22:29:12.420,-0.227,-1.051,0.469
11/26/2023 22:29:12.430,-0.188,-1.195,0.5
11/26/2023 22:29:12.440,-0.156,-1.34,0.543
11/26/2023 22:29:12.450,-0.199,-1.426,0.527
11/26/2023 22:29:12.460,-0.234,-1.434,0.488
11/26/2023 22:29:12.470,-0.211,-1.375,0.445
11/26/2023 22:29:12.480,-0.188,-1.305,0.379
11/26/2023 22:29:12.490,-0.176,-1.25,0.313
11/26/2023 22:29:12.500,-0.168,-1.238,0.293
11/26/2023 22:29:12.510,-0.137,-1.23,0.336
11/26/2023 22:29:12.520,-0.082,-1.195,0.32
11/26/2023 22:29:12.530,-0.004,-1.145,0.246
11/26/2023 22:29:12.540,0.074,-1.051,0.113
11/26/2023 22:29:12.550,0.133,-0.883,-0.02
11/26/2023 22:29:12.560,0.148,-0.77,-0.063
11/26/2023 22:29:12.570,0.164,-0.805,-0.039
11/26/2023 22:29:12.580,0.184,-0.977,0.043
11/26/2023 22:29:12.590,0.152,-1.195,0.191
11/26/2023 22:29:12.600,0.082,-1.383,0.355
11/26/2023 22:29:12.610,0.066,-1.434,0.41
11/26/2023 22:29:12.620,0.074,-1.371,0.371
11/26/2023 22:29:12.630,0.047,-1.297,0.301
11/26/2023 22:29:12.640,0.027,-1.254,0.254
11/26/2023 22:29:12.650,0.047,-1.234,0.238
11/26/2023 22:29:12.660,0.063,-1.227,0.227
11/26/2023 22:29:12.670,0.043,-1.199,0.219
11/26/2023 22:29:12.680,0.02,-1.133,0.199
11/26/2023 22:29:12.690,-0.004,-1.035,0.172
11/26/2023 22:29:12.700,-0.047,-0.938,0.16
11/26/2023 22:29:12.710,-0.074,-0.836,0.16
11/26/2023 22:29:12.720,-0.102,-0.738,0.168
11/26/2023 22:29:12.730,-0.109,-0.648,0.184
11/26/2023 22:29:12.740,-0.121,-0.586,0.195
11/26/2023 22:29:12.750,-0.133,-0.559,0.203
11/26/2023 22:29:12.760,-0.141,-0.555,0.219
11/26/2023 22:29:12.770,-0.133,-0.566,0.25
11/26/2023 22:29:12.780,-0.094,-0.582,0.281
11/26/2023 22:29:12.790,-0.047,-0.602,0.316
11/26/2023 22:29:12.800,-0.02,-0.629,0.34
11/26/2023 22:29:12.810,-0.02,-0.641,0.352
11/26/2023 22:29:12.820,-0.023,-0.645,0.375
11/26/2023 22:29:12.830,-0.039,-0.656,0.387
11/26/2023 22:29:12.840,-0.055,-0.664,0.391
11/26/2023 22:29:12.850,-0.094,-0.672,0.375
11/26/2023 22:29:12.860,-0.133,-0.672,0.352
11/26/2023 22:29:12.870,-0.152,-0.676,0.352
11/26/2023 22:29:12.880,-0.164,-0.711,0.383
11/26/2023 22:29:12.890,-0.172,-0.793,0.438
11/26/2023 22:29:12.900,-0.168,-0.895,0.477
11/26/2023 22:29:12.910,-0.117,-0.965,0.488
11/26/2023 22:29:12.920,-0.047,-1.004,0.488
11/26/2023 22:29:12.930,-0.02,-1.059,0.492
11/26/2023 22:29:12.940,0,-1.133,0.531
11/26/2023 22:29:12.950,0.016,-1.242,0.613
11/26/2023 22:29:12.960,0.031,-1.359,0.715
11/26/2023 22:29:12.970,0.039,-1.426,0.754
11/26/2023 22:29:12.980,0.031,-1.414,0.711
11/26/2023 22:29:12.990,0.012,-1.355,0.598
11/26/2023 22:29:13.000,-0.016,-1.285,0.441
11/26/2023 22:29:13.010,-0.02,-1.266,0.305
11/26/2023 22:29:13.020,-0.016,-1.289,0.188
11/26/2023 22:29:13.030,0.121,-1.328,0.16
11/26/2023 22:29:13.040,0.293,-1.387,0.188
11/26/2023 22:29:13.050,0.352,-1.457,0.203
11/26/2023 22:29:13.060,0.324,-1.48,0.148
11/26/2023 22:29:13.070,0.281,-1.418,0.125
11/26/2023 22:29:13.080,0.223,-1.285,0.113
11/26/2023 22:29:13.090,0.148,-1.07,0.082
11/26/2023 22:29:13.100,0.113,-0.852,0.051
11/26/2023 22:29:13.110,0.078,-0.723,0.055
11/26/2023 22:29:13.120,0.023,-0.699,0.094
11/26/2023 22:29:13.130,-0.02,-0.75,0.16
11/26/2023 22:29:13.140,-0.023,-0.801,0.219
11/26/2023 22:29:13.150,-0.016,-0.824,0.266
11/26/2023 22:29:13.160,0.004,-0.836,0.285
11/26/2023 22:29:13.170,0.047,-0.852,0.305
11/26/2023 22:29:13.180,0.105,-0.871,0.313
11/26/2023 22:29:13.190,0.164,-0.891,0.313
11/26/2023 22:29:13.200,0.184,-0.906,0.297
11/26/2023 22:29:13.210,0.16,-0.918,0.266
11/26/2023 22:29:13.220,0.121,-0.91,0.234
11/26/2023 22:29:13.230,0.102,-0.906,0.215
11/26/2023 22:29:13.240,0.074,-0.887,0.191
11/26/2023 22:29:13.250,0.051,-0.867,0.172
11/26/2023 22:29:13.260,0.035,-0.832,0.156
11/26/2023 22:29:13.270,0.008,-0.789,0.148
11/26/2023 22:29:13.280,-0.031,-0.738,0.152
11/26/2023 22:29:13.290,-0.066,-0.684,0.16
11/26/2023 22:29:13.300,-0.086,-0.648,0.168
11/26/2023 22:29:13.310,-0.105,-0.652,0.18
11/26/2023 22:29:13.320,-0.121,-0.691,0.199
11/26/2023 22:29:13.330,-0.129,-0.746,0.219
11/26/2023 22:29:13.340,-0.125,-0.801,0.238
11/26/2023 22:29:13.350,-0.125,-0.855,0.246
11/26/2023 22:29:13.360,-0.125,-0.898,0.254
11/26/2023 22:29:13.370,-0.137,-0.922,0.25
11/26/2023 22:29:13.380,-0.156,-0.922,0.25
11/26/2023 22:29:13.390,-0.184,-0.938,0.262
11/26/2023 22:29:13.400,-0.211,-0.965,0.293
11/26/2023 22:29:13.410,-0.242,-0.973,0.309
11/26/2023 22:29:13.420,-0.254,-0.98,0.336
11/26/2023 22:29:13.430,-0.238,-1.008,0.375
11/26/2023 22:29:13.440,-0.219,-1.031,0.383
11/26/2023 22:29:13.450,-0.199,-1.066,0.406
11/26/2023 22:29:13.460,-0.203,-1.105,0.43
11/26/2023 22:29:13.470,-0.219,-1.148,0.43
11/26/2023 22:29:13.480,-0.246,-1.215,0.426
11/26/2023 22:29:13.490,-0.273,-1.258,0.387
11/26/2023 22:29:13.500,-0.305,-1.238,0.305
11/26/2023 22:29:13.510,-0.293,-1.195,0.262
11/26/2023 22:29:13.520,-0.281,-1.211,0.277
11/26/2023 22:29:13.530,-0.27,-1.246,0.336
11/26/2023 22:29:13.540,-0.207,-1.223,0.316
11/26/2023 22:29:13.550,-0.117,-1.207,0.27
11/26/2023 22:29:13.560,-0.012,-1.156,0.168
11/26/2023 22:29:13.570,0.051,-1.051,0.066
11/26/2023 22:29:13.580,0.094,-1.023,0.051
11/26/2023 22:29:13.590,0.188,-1.031,0.063
11/26/2023 22:29:13.600,0.301,-1.059,0.117
11/26/2023 22:29:13.610,0.395,-1.074,0.188
11/26/2023 22:29:13.620,0.359,-1.18,0.297
11/26/2023 22:29:13.630,0.395,-1.277,0.414
11/26/2023 22:29:13.640,0.402,-1.359,0.441
11/26/2023 22:29:13.650,0.27,-1.43,0.402
11/26/2023 22:29:13.660,0.215,-1.43,0.398
11/26/2023 22:29:13.670,0.211,-1.352,0.371
11/26/2023 22:29:13.680,0.16,-1.238,0.297
11/26/2023 22:29:13.690,0.102,-1.121,0.223
11/26/2023 22:29:13.700,0.059,-1.023,0.191
11/26/2023 22:29:13.710,-0.012,-0.953,0.16
11/26/2023 22:29:13.720,-0.078,-0.883,0.148
11/26/2023 22:29:13.730,-0.117,-0.797,0.156
11/26/2023 22:29:13.740,-0.133,-0.691,0.168
11/26/2023 22:29:13.750,-0.152,-0.594,0.176
11/26/2023 22:29:13.760,-0.168,-0.535,0.199
11/26/2023 22:29:13.770,-0.168,-0.516,0.23
11/26/2023 22:29:13.780,-0.164,-0.531,0.258
11/26/2023 22:29:13.790,-0.148,-0.566,0.289
11/26/2023 22:29:13.800,-0.129,-0.617,0.332
11/26/2023 22:29:13.810,-0.09,-0.664,0.379
11/26/2023 22:29:13.820,-0.043,-0.723,0.426
11/26/2023 22:29:13.830,-0.004,-0.754,0.461
11/26/2023 22:29:13.840,0.016,-0.77,0.465
11/26/2023 22:29:13.850,0.027,-0.766,0.457
11/26/2023 22:29:13.860,0.027,-0.762,0.441
11/26/2023 22:29:13.870,-0.004,-0.758,0.434
11/26/2023 22:29:13.880,-0.047,-0.758,0.449
11/26/2023 22:29:13.890,-0.105,-0.75,0.465
11/26/2023 22:29:13.900,-0.148,-0.723,0.453
11/26/2023 22:29:13.910,-0.184,-0.691,0.434
11/26/2023 22:29:13.920,-0.234,-0.688,0.426
11/26/2023 22:29:13.930,-0.285,-0.715,0.438
11/26/2023 22:29:13.940,-0.313,-0.777,0.457
11/26/2023 22:29:13.950,-0.289,-0.848,0.43
11/26/2023 22:29:13.960,-0.227,-0.91,0.383
11/26/2023 22:29:13.970,-0.176,-1,0.363
11/26/2023 22:29:13.980,-0.129,-1.141,0.406
11/26/2023 22:29:13.990,-0.078,-1.32,0.504
11/26/2023 22:29:14.000,-0.035,-1.492,0.633
11/26/2023 22:29:14.010,0.008,-1.574,0.719
11/26/2023 22:29:14.020,0.07,-1.527,0.695
11/26/2023 22:29:14.030,0.121,-1.418,0.59
11/26/2023 22:29:14.040,0.152,-1.352,0.469
11/26/2023 22:29:14.050,0.203,-1.355,0.375
11/26/2023 22:29:14.060,0.262,-1.371,0.324
11/26/2023 22:29:14.070,0.313,-1.363,0.293
11/26/2023 22:29:14.080,0.402,-1.324,0.297
11/26/2023 22:29:14.090,0.48,-1.273,0.324
11/26/2023 22:29:14.100,0.469,-1.223,0.313
11/26/2023 22:29:14.110,0.406,-1.133,0.234
11/26/2023 22:29:14.120,0.336,-1.008,0.16
11/26/2023 22:29:14.130,0.23,-0.859,0.102
11/26/2023 22:29:14.140,0.133,-0.727,0.043
11/26/2023 22:29:14.150,0.082,-0.672,0.016
11/26/2023 22:29:14.160,0.043,-0.73,0.035
11/26/2023 22:29:14.170,-0.004,-0.871,0.086
11/26/2023 22:29:14.180,-0.023,-0.996,0.141
11/26/2023 22:29:14.190,0,-1.047,0.18
11/26/2023 22:29:14.200,0.039,-1.027,0.184
11/26/2023 22:29:14.210,0.098,-0.965,0.203
11/26/2023 22:29:14.220,0.168,-0.898,0.23
11/26/2023 22:29:14.230,0.23,-0.848,0.258
11/26/2023 22:29:14.240,0.254,-0.832,0.289
11/26/2023 22:29:14.250,0.262,-0.84,0.309
11/26/2023 22:29:14.260,0.25,-0.844,0.309
11/26/2023 22:29:14.270,0.223,-0.84,0.273
11/26/2023 22:29:14.280,0.195,-0.824,0.234
11/26/2023 22:29:14.290,0.148,-0.816,0.188
11/26/2023 22:29:14.300,0.105,-0.809,0.156
11/26/2023 22:29:14.310,0.055,-0.793,0.125
11/26/2023 22:29:14.320,0,-0.766,0.102
11/26/2023 22:29:14.330,-0.066,-0.727,0.078
11/26/2023 22:29:14.340,-0.129,-0.695,0.055
11/26/2023 22:29:14.350,-0.168,-0.699,0.059
11/26/2023 22:29:14.360,-0.188,-0.73,0.078
11/26/2023 22:29:14.370,-0.184,-0.77,0.105
11/26/2023 22:29:14.380,-0.16,-0.832,0.148
11/26/2023 22:29:14.390,-0.129,-0.887,0.188
11/26/2023 22:29:14.400,-0.098,-0.926,0.242
11/26/2023 22:29:14.410,-0.066,-0.949,0.289
11/26/2023 22:29:14.420,-0.059,-0.945,0.328
11/26/2023 22:29:14.430,-0.07,-0.934,0.348
11/26/2023 22:29:14.440,-0.078,-0.918,0.363
11/26/2023 22:29:14.450,-0.102,-0.914,0.375
11/26/2023 22:29:14.460,-0.152,-0.934,0.383
11/26/2023 22:29:14.470,-0.195,-0.973,0.383
11/26/2023 22:29:14.480,-0.23,-1.016,0.371
11/26/2023 22:29:14.490,-0.254,-1.063,0.355
11/26/2023 22:29:14.500,-0.281,-1.125,0.352
11/26/2023 22:29:14.510,-0.301,-1.191,0.363
11/26/2023 22:29:14.520,-0.281,-1.238,0.355
11/26/2023 22:29:14.530,-0.301,-1.277,0.375
11/26/2023 22:29:14.540,-0.32,-1.262,0.367
11/26/2023 22:29:14.550,-0.273,-1.227,0.348
11/26/2023 22:29:14.560,-0.203,-1.223,0.32
11/26/2023 22:29:14.570,-0.141,-1.23,0.324
11/26/2023 22:29:14.580,-0.063,-1.23,0.355
11/26/2023 22:29:14.590,0.004,-1.227,0.371
11/26/2023 22:29:14.600,0.102,-1.195,0.293
11/26/2023 22:29:14.610,0.223,-1.133,0.156
11/26/2023 22:29:14.620,0.246,-1.07,0.055
11/26/2023 22:29:14.630,0.25,-1.035,0.016
11/26/2023 22:29:14.640,0.281,-1.051,0.051
11/26/2023 22:29:14.650,0.309,-1.137,0.152
11/26/2023 22:29:14.660,0.305,-1.219,0.258
11/26/2023 22:29:14.670,0.277,-1.27,0.352
11/26/2023 22:29:14.680,0.254,-1.293,0.395
11/26/2023 22:29:14.690,0.195,-1.301,0.391
11/26/2023 22:29:14.700,0.121,-1.309,0.355
11/26/2023 22:29:14.710,0.102,-1.27,0.316
11/26/2023 22:29:14.720,0.098,-1.195,0.27
11/26/2023 22:29:14.730,0.082,-1.117,0.219
11/26/2023 22:29:14.740,0.055,-1.035,0.203
11/26/2023 22:29:14.750,0.031,-0.941,0.203
11/26/2023 22:29:14.760,0,-0.832,0.199
11/26/2023 22:29:14.770,-0.031,-0.719,0.207
11/26/2023 22:29:14.780,-0.043,-0.613,0.215
11/26/2023 22:29:14.790,-0.059,-0.527,0.223
11/26/2023 22:29:14.800,-0.09,-0.484,0.238
11/26/2023 22:29:14.810,-0.121,-0.484,0.254
11/26/2023 22:29:14.820,-0.141,-0.516,0.262
11/26/2023 22:29:14.830,-0.145,-0.578,0.281
11/26/2023 22:29:14.840,-0.129,-0.652,0.309
11/26/2023 22:29:14.850,-0.109,-0.73,0.332
11/26/2023 22:29:14.860,-0.074,-0.801,0.344
11/26/2023 22:29:14.870,-0.043,-0.832,0.348
11/26/2023 22:29:14.880,-0.027,-0.836,0.34
11/26/2023 22:29:14.890,-0.027,-0.816,0.344
11/26/2023 22:29:14.900,-0.027,-0.805,0.355
11/26/2023 22:29:14.910,-0.051,-0.801,0.375
11/26/2023 22:29:14.920,-0.094,-0.781,0.395
11/26/2023 22:29:14.930,-0.129,-0.766,0.41
11/26/2023 22:29:14.940,-0.16,-0.742,0.406
11/26/2023 22:29:14.950,-0.176,-0.738,0.395
11/26/2023 22:29:14.960,-0.18,-0.758,0.398
11/26/2023 22:29:14.970,-0.215,-0.816,0.414
11/26/2023 22:29:14.980,-0.242,-0.883,0.43
11/26/2023 22:29:14.990,-0.219,-0.922,0.395
11/26/2023 22:29:15.000,-0.16,-0.945,0.34
11/26/2023 22:29:15.010,-0.102,-1.035,0.348
11/26/2023 22:29:15.020,-0.012,-1.18,0.43
11/26/2023 22:29:15.030,0.012,-1.387,0.547
11/26/2023 22:29:15.040,0.027,-1.578,0.695
11/26/2023 22:29:15.050,0.117,-1.629,0.754
11/26/2023 22:29:15.060,0.16,-1.539,0.609
11/26/2023 22:29:15.070,0.188,-1.414,0.418
11/26/2023 22:29:15.080,0.238,-1.355,0.297
11/26/2023 22:29:15.090,0.27,-1.359,0.219
11/26/2023 22:29:15.100,0.305,-1.387,0.195
11/26/2023 22:29:15.110,0.418,-1.391,0.203
11/26/2023 22:29:15.120,0.543,-1.379,0.195
11/26/2023 22:29:15.130,0.539,-1.352,0.141
11/26/2023 22:29:15.140,0.414,-1.281,0.063
11/26/2023 22:29:15.150,0.285,-1.152,0.012
11/26/2023 22:29:15.160,0.191,-0.984,-0.027
11/26/2023 22:29:15.170,0.094,-0.828,-0.074
11/26/2023 22:29:15.180,0.012,-0.742,-0.07
11/26/2023 22:29:15.190,-0.043,-0.754,-0.016
11/26/2023 22:29:15.200,-0.059,-0.828,0.082
11/26/2023 22:29:15.210,-0.047,-0.898,0.164
11/26/2023 22:29:15.220,-0.004,-0.926,0.227
11/26/2023 22:29:15.230,0.07,-0.91,0.254
11/26/2023 22:29:15.240,0.18,-0.879,0.266
11/26/2023 22:29:15.250,0.289,-0.84,0.273
11/26/2023 22:29:15.260,0.363,-0.836,0.281
11/26/2023 22:29:15.270,0.387,-0.863,0.309
11/26/2023 22:29:15.280,0.371,-0.898,0.328
11/26/2023 22:29:15.290,0.324,-0.91,0.313
11/26/2023 22:29:15.300,0.262,-0.902,0.262
11/26/2023 22:29:15.310,0.203,-0.875,0.199
11/26/2023 22:29:15.320,0.141,-0.848,0.152
11/26/2023 22:29:15.330,0.078,-0.82,0.113
11/26/2023 22:29:15.340,0.008,-0.809,0.082
11/26/2023 22:29:15.350,-0.059,-0.777,0.047
11/26/2023 22:29:15.360,-0.125,-0.734,0.02
11/26/2023 22:29:15.370,-0.195,-0.695,-0.004
11/26/2023 22:29:15.380,-0.227,-0.656,-0.008
11/26/2023 22:29:15.390,-0.234,-0.664,0.02
11/26/2023 22:29:15.400,-0.238,-0.711,0.07
11/26/2023 22:29:15.410,-0.203,-0.773,0.133
11/26/2023 22:29:15.420,-0.152,-0.852,0.195
11/26/2023 22:29:15.430,-0.098,-0.902,0.25
11/26/2023 22:29:15.440,-0.063,-0.93,0.285
11/26/2023 22:29:15.450,-0.051,-0.949,0.305
11/26/2023 22:29:15.460,-0.039,-0.941,0.316
11/26/2023 22:29:15.470,-0.055,-0.922,0.32
11/26/2023 22:29:15.480,-0.098,-0.922,0.344
11/26/2023 22:29:15.490,-0.137,-0.953,0.375
11/26/2023 22:29:15.500,-0.184,-0.992,0.402
11/26/2023 22:29:15.510,-0.203,-1.027,0.398
11/26/2023 22:29:15.520,-0.23,-1.043,0.375
11/26/2023 22:29:15.530,-0.281,-1.059,0.359
11/26/2023 22:29:15.540,-0.34,-1.086,0.344
11/26/2023 22:29:15.550,-0.379,-1.121,0.352
11/26/2023 22:29:15.560,-0.402,-1.168,0.371
11/26/2023 22:29:15.570,-0.367,-1.184,0.398
11/26/2023 22:29:15.580,-0.363,-1.215,0.438
11/26/2023 22:29:15.590,-0.305,-1.215,0.426
11/26/2023 22:29:15.600,-0.184,-1.156,0.359
11/26/2023 22:29:15.610,-0.055,-1.113,0.305
11/26/2023 22:29:15.620,0.043,-1.16,0.289
11/26/2023 22:29:15.630,0.168,-1.227,0.336
11/26/2023 22:29:15.640,0.238,-1.27,0.309
11/26/2023 22:29:15.650,0.316,-1.188,0.191
11/26/2023 22:29:15.660,0.359,-1.055,0.043
11/26/2023 22:29:15.670,0.363,-0.965,-0.023
11/26/2023 22:29:15.680,0.34,-0.973,0.027
11/26/2023 22:29:15.690,0.348,-1.02,0.141
11/26/2023 22:29:15.700,0.266,-1.078,0.215
11/26/2023 22:29:15.710,0.18,-1.105,0.285
11/26/2023 22:29:15.720,0.102,-1.121,0.305
11/26/2023 22:29:15.730,0.078,-1.133,0.258
11/26/2023 22:29:15.740,0.074,-1.207,0.234
11/26/2023 22:29:15.750,0.133,-1.301,0.266
11/26/2023 22:29:15.760,0.156,-1.383,0.316
11/26/2023 22:29:15.770,0.164,-1.406,0.332
11/26/2023 22:29:15.780,0.172,-1.363,0.316
11/26/2023 22:29:15.790,0.152,-1.27,0.27
11/26/2023 22:29:15.800,0.105,-1.152,0.234
11/26/2023 22:29:15.810,0.023,-1.027,0.215
11/26/2023 22:29:15.820,-0.055,-0.898,0.199
11/26/2023 22:29:15.830,-0.117,-0.766,0.184
11/26/2023 22:29:15.840,-0.172,-0.648,0.16
11/26/2023 22:29:15.850,-0.219,-0.566,0.148
11/26/2023 22:29:15.860,-0.262,-0.527,0.148
11/26/2023 22:29:15.870,-0.293,-0.52,0.164
11/26/2023 22:29:15.880,-0.285,-0.535,0.184
11/26/2023 22:29:15.890,-0.242,-0.566,0.227
11/26/2023 22:29:15.900,-0.168,-0.609,0.27
11/26/2023 22:29:15.910,-0.094,-0.66,0.328
11/26/2023 22:29:15.920,-0.051,-0.695,0.371
11/26/2023 22:29:15.930,-0.02,-0.723,0.414
11/26/2023 22:29:15.940,0,-0.754,0.438
11/26/2023 22:29:15.950,0.004,-0.773,0.434
11/26/2023 22:29:15.960,0.008,-0.777,0.434
11/26/2023 22:29:15.970,-0.004,-0.777,0.41
11/26/2023 22:29:15.980,-0.031,-0.77,0.375
11/26/2023 22:29:15.990,-0.055,-0.77,0.363
11/26/2023 22:29:16.000,-0.109,-0.781,0.375
11/26/2023 22:29:16.010,-0.152,-0.801,0.418
11/26/2023 22:29:16.020,-0.176,-0.848,0.473
11/26/2023 22:29:16.030,-0.164,-0.887,0.508
11/26/2023 22:29:16.040,-0.145,-0.906,0.516
11/26/2023 22:29:16.050,-0.113,-0.938,0.504
11/26/2023 22:29:16.060,-0.086,-1.02,0.488
11/26/2023 22:29:16.070,-0.102,-1.191,0.523
11/26/2023 22:29:16.080,-0.074,-1.383,0.609
11/26/2023 22:29:16.090,-0.035,-1.523,0.672
11/26/2023 22:29:16.100,0.008,-1.43,0.613
11/26/2023 22:29:16.110,0.055,-1.293,0.531
11/26/2023 22:29:16.120,0.063,-1.254,0.484
11/26/2023 22:29:16.130,0.086,-1.273,0.461
11/26/2023 22:29:16.140,0.109,-1.316,0.422
11/26/2023 22:29:16.150,0.145,-1.336,0.363
11/26/2023 22:29:16.160,0.23,-1.324,0.285
11/26/2023 22:29:16.170,0.344,-1.266,0.203
11/26/2023 22:29:16.180,0.418,-1.211,0.145
11/26/2023 22:29:16.190,0.391,-1.164,0.074
11/26/2023 22:29:16.200,0.324,-1.113,0.02
11/26/2023 22:29:16.210,0.266,-1.051,0.023
11/26/2023 22:29:16.220,0.219,-1,0.047
11/26/2023 22:29:16.230,0.191,-0.953,0.055
11/26/2023 22:29:16.240,0.18,-0.93,0.07
11/26/2023 22:29:16.250,0.141,-0.934,0.098
11/26/2023 22:29:16.260,0.125,-0.949,0.145
11/26/2023 22:29:16.270,0.152,-0.949,0.215
11/26/2023 22:29:16.280,0.188,-0.93,0.273
11/26/2023 22:29:16.290,0.215,-0.879,0.305
11/26/2023 22:29:16.300,0.246,-0.824,0.313
11/26/2023 22:29:16.310,0.262,-0.797,0.324
11/26/2023 22:29:16.320,0.258,-0.801,0.336
11/26/2023 22:29:16.330,0.23,-0.797,0.328
11/26/2023 22:29:16.340,0.199,-0.793,0.297
11/26/2023 22:29:16.350,0.152,-0.789,0.242
11/26/2023 22:29:16.360,0.113,-0.793,0.195
11/26/2023 22:29:16.370,0.063,-0.813,0.16
11/26/2023 22:29:16.380,0.016,-0.836,0.125
11/26/2023 22:29:16.390,-0.035,-0.852,0.098
11/26/2023 22:29:16.400,-0.082,-0.844,0.086
11/26/2023 22:29:16.410,-0.121,-0.809,0.07
11/26/2023 22:29:16.420,-0.168,-0.773,0.051
11/26/2023 22:29:16.430,-0.207,-0.742,0.047
11/26/2023 22:29:16.440,-0.215,-0.746,0.07
11/26/2023 22:29:16.450,-0.219,-0.785,0.098
11/26/2023 22:29:16.460,-0.211,-0.824,0.137
11/26/2023 22:29:16.470,-0.195,-0.859,0.18
11/26/2023 22:29:16.480,-0.156,-0.883,0.227
11/26/2023 22:29:16.490,-0.129,-0.898,0.277
11/26/2023 22:29:16.500,-0.137,-0.91,0.305
11/26/2023 22:29:16.510,-0.121,-0.906,0.336
11/26/2023 22:29:16.520,-0.133,-0.883,0.352
11/26/2023 22:29:16.530,-0.16,-0.867,0.355
11/26/2023 22:29:16.540,-0.203,-0.875,0.367
11/26/2023 22:29:16.550,-0.246,-0.918,0.379
11/26/2023 22:29:16.560,-0.27,-0.961,0.395
11/26/2023 22:29:16.570,-0.258,-1.02,0.402
11/26/2023 22:29:16.580,-0.309,-1.098,0.398
11/26/2023 22:29:16.590,-0.363,-1.152,0.383
11/26/2023 22:29:16.600,-0.391,-1.207,0.367
11/26/2023 22:29:16.610,-0.402,-1.258,0.355
11/26/2023 22:29:16.620,-0.391,-1.297,0.336
11/26/2023 22:29:16.630,-0.352,-1.328,0.324
11/26/2023 22:29:16.640,-0.293,-1.313,0.301
11/26/2023 22:29:16.650,-0.191,-1.266,0.301
11/26/2023 22:29:16.660,-0.105,-1.262,0.309
11/26/2023 22:29:16.670,-0.004,-1.258,0.328
11/26/2023 22:29:16.680,0.121,-1.234,0.324
11/26/2023 22:29:16.690,0.191,-1.191,0.281
11/26/2023 22:29:16.700,0.277,-1.094,0.191
11/26/2023 22:29:16.710,0.336,-0.977,0.066
11/26/2023 22:29:16.720,0.34,-0.906,-0.016
11/26/2023 22:29:16.730,0.348,-0.922,-0.012
11/26/2023 22:29:16.740,0.348,-0.98,0.035
11/26/2023 22:29:16.750,0.313,-1.105,0.145
11/26/2023 22:29:16.760,0.27,-1.246,0.285
11/26/2023 22:29:16.770,0.254,-1.27,0.352
11/26/2023 22:29:16.780,0.227,-1.262,0.363
11/26/2023 22:29:16.790,0.23,-1.25,0.363
11/26/2023 22:29:16.800,0.199,-1.258,0.344
11/26/2023 22:29:16.810,0.199,-1.262,0.324
11/26/2023 22:29:16.820,0.184,-1.234,0.281
11/26/2023 22:29:16.830,0.16,-1.168,0.246
11/26/2023 22:29:16.840,0.129,-1.082,0.215
11/26/2023 22:29:16.850,0.094,-0.996,0.188
11/26/2023 22:29:16.860,0.012,-0.906,0.156
11/26/2023 22:29:16.870,-0.066,-0.824,0.148
11/26/2023 22:29:16.880,-0.121,-0.762,0.156
11/26/2023 22:29:16.890,-0.16,-0.715,0.172
11/26/2023 22:29:16.900,-0.184,-0.68,0.176
11/26/2023 22:29:16.910,-0.184,-0.648,0.191
11/26/2023 22:29:16.920,-0.188,-0.645,0.219
11/26/2023 22:29:16.930,-0.168,-0.652,0.242
11/26/2023 22:29:16.940,-0.113,-0.652,0.289
11/26/2023 22:29:16.950,-0.051,-0.66,0.332
11/26/2023 22:29:16.960,-0.008,-0.684,0.375
11/26/2023 22:29:16.970,0.031,-0.703,0.422
11/26/2023 22:29:16.980,0.055,-0.711,0.438
11/26/2023 22:29:16.990,0.051,-0.695,0.422
11/26/2023 22:29:17.000,0.023,-0.715,0.438
11/26/2023 22:29:17.010,-0.004,-0.758,0.445
11/26/2023 22:29:17.020,-0.039,-0.766,0.418
11/26/2023 22:29:17.030,-0.09,-0.762,0.395
11/26/2023 22:29:17.040,-0.117,-0.754,0.371
11/26/2023 22:29:17.050,-0.117,-0.766,0.355
11/26/2023 22:29:17.060,-0.117,-0.813,0.375
11/26/2023 22:29:17.070,-0.117,-0.875,0.426
11/26/2023 22:29:17.080,-0.113,-0.938,0.504
11/26/2023 22:29:17.090,-0.102,-0.977,0.563
11/26/2023 22:29:17.100,-0.086,-1,0.566
11/26/2023 22:29:17.110,-0.086,-1.023,0.531
11/26/2023 22:29:17.120,-0.082,-1.082,0.496
11/26/2023 22:29:17.130,-0.078,-1.152,0.484
11/26/2023 22:29:17.140,-0.09,-1.227,0.52
11/26/2023 22:29:17.150,-0.109,-1.273,0.543
11/26/2023 22:29:17.160,-0.113,-1.27,0.523
11/26/2023 22:29:17.170,-0.07,-1.227,0.48
11/26/2023 22:29:17.180,-0.098,-1.207,0.445
11/26/2023 22:29:17.190,-0.156,-1.199,0.438
11/26/2023 22:29:17.200,-0.152,-1.195,0.414
11/26/2023 22:29:17.210,-0.043,-1.176,0.379
11/26/2023 22:29:17.220,0.129,-1.145,0.324
11/26/2023 22:29:17.230,0.273,-1.109,0.254
11/26/2023 22:29:17.240,0.402,-1.055,0.137
11/26/2023 22:29:17.250,0.484,-1.039,0.027
11/26/2023 22:29:17.260,0.484,-1.102,0
11/26/2023 22:29:17.270,0.422,-1.227,0.02
11/26/2023 22:29:17.280,0.367,-1.332,0.027
11/26/2023 22:29:17.290,0.336,-1.363,0.035
11/26/2023 22:29:17.300,0.293,-1.297,0.02
11/26/2023 22:29:17.310,0.211,-1.172,0.02
11/26/2023 22:29:17.320,0.129,-1.047,0.066
11/26/2023 22:29:17.330,0.09,-0.961,0.184
11/26/2023 22:29:17.340,0.07,-0.898,0.313
11/26/2023 22:29:17.350,0.051,-0.836,0.375
11/26/2023 22:29:17.360,0.055,-0.758,0.398
11/26/2023 22:29:17.370,0.074,-0.68,0.375
11/26/2023 22:29:17.380,0.117,-0.641,0.32
11/26/2023 22:29:17.390,0.141,-0.672,0.277
11/26/2023 22:29:17.400,0.145,-0.77,0.25
11/26/2023 22:29:17.410,0.117,-0.887,0.227
11/26/2023 22:29:17.420,0.086,-0.977,0.191
11/26/2023 22:29:17.430,0.063,-1.004,0.152
11/26/2023 22:29:17.440,0.051,-0.977,0.105
11/26/2023 22:29:17.450,0.047,-0.945,0.074
11/26/2023 22:29:17.460,0.031,-0.914,0.07
11/26/2023 22:29:17.470,-0.012,-0.883,0.066
11/26/2023 22:29:17.480,-0.063,-0.828,0.066
11/26/2023 22:29:17.490,-0.098,-0.781,0.082
11/26/2023 22:29:17.500,-0.137,-0.738,0.105
11/26/2023 22:29:17.510,-0.137,-0.715,0.145
11/26/2023 22:29:17.520,-0.137,-0.707,0.172
11/26/2023 22:29:17.530,-0.125,-0.719,0.191
11/26/2023 22:29:17.540,-0.113,-0.75,0.215
11/26/2023 22:29:17.550,-0.102,-0.805,0.242
11/26/2023 22:29:17.560,-0.086,-0.871,0.281
11/26/2023 22:29:17.570,-0.078,-0.922,0.305
11/26/2023 22:29:17.580,-0.074,-0.949,0.313
11/26/2023 22:29:17.590,-0.066,-0.957,0.297
11/26/2023 22:29:17.600,-0.066,-0.953,0.289
11/26/2023 22:29:17.610,-0.082,-0.953,0.301
11/26/2023 22:29:17.620,-0.098,-0.977,0.324
11/26/2023 22:29:17.630,-0.105,-1,0.348
11/26/2023 22:29:17.640,-0.121,-1.031,0.383
11/26/2023 22:29:17.650,-0.164,-1.063,0.41
11/26/2023 22:29:17.660,-0.211,-1.098,0.445
11/26/2023 22:29:17.670,-0.23,-1.137,0.426
11/26/2023 22:29:17.680,-0.262,-1.215,0.453
11/26/2023 22:29:17.690,-0.367,-1.23,0.422
11/26/2023 22:29:17.700,-0.414,-1.203,0.359
11/26/2023 22:29:17.710,-0.383,-1.168,0.277
11/26/2023 22:29:17.720,-0.305,-1.176,0.234
11/26/2023 22:29:17.730,-0.203,-1.242,0.27
11/26/2023 22:29:17.740,-0.117,-1.285,0.34
11/26/2023 22:29:17.750,-0.004,-1.273,0.383
11/26/2023 22:29:17.760,0.074,-1.215,0.336
11/26/2023 22:29:17.770,0.176,-1.152,0.234
11/26/2023 22:29:17.780,0.297,-1.02,0.117
11/26/2023 22:29:17.790,0.313,-0.906,0.035
11/26/2023 22:29:17.800,0.301,-0.91,0.027
11/26/2023 22:29:17.810,0.324,-0.949,0.074
11/26/2023 22:29:17.820,0.328,-1.02,0.16
11/26/2023 22:29:17.830,0.293,-1.098,0.266
11/26/2023 22:29:17.840,0.227,-1.164,0.352
11/26/2023 22:29:17.850,0.184,-1.211,0.367
11/26/2023 22:29:17.860,0.148,-1.242,0.352
11/26/2023 22:29:17.870,0.141,-1.281,0.344
11/26/2023 22:29:17.880,0.113,-1.316,0.328
11/26/2023 22:29:17.890,0.094,-1.305,0.309
11/26/2023 22:29:17.900,0.094,-1.254,0.285
11/26/2023 22:29:17.910,0.059,-1.164,0.25
11/26/2023 22:29:17.920,0,-1.055,0.23
11/26/2023 22:29:17.930,-0.066,-0.941,0.215
11/26/2023 22:29:17.940,-0.129,-0.816,0.195
11/26/2023 22:29:17.950,-0.188,-0.699,0.191
11/26/2023 22:29:17.960,-0.207,-0.598,0.199
11/26/2023 22:29:17.970,-0.223,-0.543,0.199
11/26/2023 22:29:17.980,-0.234,-0.535,0.207
11/26/2023 22:29:17.990,-0.23,-0.566,0.219
11/26/2023 22:29:18.000,-0.211,-0.609,0.262
11/26/2023 22:29:18.010,-0.16,-0.652,0.316
11/26/2023 22:29:18.020,-0.094,-0.695,0.371
11/26/2023 22:29:18.030,-0.031,-0.73,0.406
11/26/2023 22:29:18.040,0.023,-0.742,0.426
11/26/2023 22:29:18.050,0.051,-0.746,0.418
11/26/2023 22:29:18.060,0.055,-0.746,0.41
11/26/2023 22:29:18.070,0.035,-0.742,0.398
11/26/2023 22:29:18.080,0.012,-0.738,0.375
11/26/2023 22:29:18.090,-0.027,-0.746,0.363
11/26/2023 22:29:18.100,-0.063,-0.758,0.344
11/26/2023 22:29:18.110,-0.09,-0.777,0.32
11/26/2023 22:29:18.120,-0.102,-0.789,0.309
11/26/2023 22:29:18.130,-0.105,-0.805,0.316
11/26/2023 22:29:18.140,-0.117,-0.844,0.359
11/26/2023 22:29:18.150,-0.152,-0.895,0.434
11/26/2023 22:29:18.160,-0.156,-0.938,0.473
11/26/2023 22:29:18.170,-0.121,-0.941,0.477
11/26/2023 22:29:18.180,-0.094,-0.957,0.461
11/26/2023 22:29:18.190,-0.09,-1,0.48
11/26/2023 22:29:18.200,-0.094,-1.102,0.516
11/26/2023 22:29:18.210,-0.105,-1.25,0.582
11/26/2023 22:29:18.220,-0.109,-1.387,0.645
11/26/2023 22:29:18.230,-0.086,-1.457,0.648
11/26/2023 22:29:18.240,-0.02,-1.43,0.594
11/26/2023 22:29:18.250,0.039,-1.34,0.488
11/26/2023 22:29:18.260,0.121,-1.25,0.371
11/26/2023 22:29:18.270,0.199,-1.191,0.238
11/26/2023 22:29:18.280,0.309,-1.191,0.176
11/26/2023 22:29:18.290,0.457,-1.246,0.176
11/26/2023 22:29:18.300,0.563,-1.367,0.211
11/26/2023 22:29:18.310,0.574,-1.52,0.242
11/26/2023 22:29:18.320,0.531,-1.617,0.211
11/26/2023 22:29:18.330,0.492,-1.559,0.188
11/26/2023 22:29:18.340,0.402,-1.309,0.094
11/26/2023 22:29:18.350,0.266,-0.957,-0.027
11/26/2023 22:29:18.360,0.164,-0.652,-0.086
11/26/2023 22:29:18.370,0.102,-0.531,-0.043
11/26/2023 22:29:18.380,0.063,-0.59,0.07
11/26/2023 22:29:18.390,0.023,-0.719,0.188
11/26/2023 22:29:18.400,0.008,-0.77,0.258
11/26/2023 22:29:18.410,0.031,-0.746,0.25
11/26/2023 22:29:18.420,0.074,-0.711,0.215
11/26/2023 22:29:18.430,0.133,-0.707,0.199
11/26/2023 22:29:18.440,0.199,-0.758,0.223
11/26/2023 22:29:18.450,0.246,-0.855,0.27
11/26/2023 22:29:18.460,0.27,-0.953,0.309
11/26/2023 22:29:18.470,0.27,-1,0.301
11/26/2023 22:29:18.480,0.262,-1,0.246
11/26/2023 22:29:18.490,0.242,-0.973,0.184
11/26/2023 22:29:18.500,0.195,-0.934,0.133
11/26/2023 22:29:18.510,0.129,-0.914,0.117
11/26/2023 22:29:18.520,0.047,-0.906,0.109
11/26/2023 22:29:18.530,-0.031,-0.879,0.094
11/26/2023 22:29:18.540,-0.094,-0.84,0.078
11/26/2023 22:29:18.550,-0.152,-0.793,0.059
11/26/2023 22:29:18.560,-0.195,-0.766,0.063
11/26/2023 22:29:18.570,-0.207,-0.766,0.094
11/26/2023 22:29:18.580,-0.195,-0.793,0.145
11/26/2023 22:29:18.590,-0.168,-0.824,0.188
11/26/2023 22:29:18.600,-0.137,-0.852,0.227
11/26/2023 22:29:18.610,-0.094,-0.902,0.281
11/26/2023 22:29:18.620,-0.086,-0.941,0.332
11/26/2023 22:29:18.630,-0.09,-0.922,0.363
11/26/2023 22:29:18.640,-0.098,-0.906,0.383
11/26/2023 22:29:18.650,-0.094,-0.898,0.398
11/26/2023 22:29:18.660,-0.117,-0.91,0.41
11/26/2023 22:29:18.670,-0.16,-0.926,0.41
11/26/2023 22:29:18.680,-0.191,-0.941,0.406
11/26/2023 22:29:18.690,-0.203,-0.965,0.402
11/26/2023 22:29:18.700,-0.238,-0.992,0.395
11/26/2023 22:29:18.710,-0.297,-1.035,0.398
11/26/2023 22:29:18.720,-0.355,-1.094,0.395
11/26/2023 22:29:18.730,-0.391,-1.141,0.371
11/26/2023 22:29:18.740,-0.402,-1.18,0.336
11/26/2023 22:29:18.750,-0.395,-1.211,0.273
11/26/2023 22:29:18.760,-0.336,-1.238,0.195
11/26/2023 22:29:18.770,-0.227,-1.262,0.156
11/26/2023 22:29:18.780,-0.152,-1.281,0.219
11/26/2023 22:29:18.790,-0.102,-1.328,0.379
11/26/2023 22:29:18.800,-0.004,-1.363,0.422
11/26/2023 22:29:18.810,0.145,-1.336,0.305
11/26/2023 22:29:18.820,0.289,-1.168,0.125
11/26/2023 22:29:18.830,0.305,-1.008,-0.027
11/26/2023 22:29:18.840,0.309,-0.906,-0.066
11/26/2023 22:29:18.850,0.277,-0.957,-0.004
11/26/2023 22:29:18.860,0.211,-1.117,0.148
11/26/2023 22:29:18.870,0.164,-1.285,0.313
11/26/2023 22:29:18.880,0.18,-1.379,0.434
11/26/2023 22:29:18.890,0.203,-1.414,0.449
11/26/2023 22:29:18.900,0.199,-1.379,0.395
11/26/2023 22:29:18.910,0.18,-1.313,0.32
11/26/2023 22:29:18.920,0.211,-1.215,0.313
11/26/2023 22:29:18.930,0.211,-1.102,0.316
11/26/2023 22:29:18.940,0.129,-0.992,0.297
11/26/2023 22:29:18.950,0.047,-0.934,0.293
11/26/2023 22:29:18.960,-0.016,-0.914,0.289
11/26/2023 22:29:18.970,-0.086,-0.891,0.27
11/26/2023 22:29:18.980,-0.152,-0.848,0.219
11/26/2023 22:29:18.990,-0.199,-0.785,0.176
11/26/2023 22:29:19.000,-0.227,-0.727,0.145
11/26/2023 22:29:19.010,-0.227,-0.688,0.141
11/26/2023 22:29:19.020,-0.219,-0.672,0.152
11/26/2023 22:29:19.030,-0.18,-0.68,0.184
11/26/2023 22:29:19.040,-0.125,-0.695,0.227
11/26/2023 22:29:19.050,-0.074,-0.695,0.277
11/26/2023 22:29:19.060,-0.035,-0.672,0.328
11/26/2023 22:29:19.070,-0.004,-0.648,0.371
11/26/2023 22:29:19.080,0.02,-0.633,0.41
11/26/2023 22:29:19.090,0.035,-0.621,0.43
11/26/2023 22:29:19.100,0.031,-0.605,0.434
11/26/2023 22:29:19.110,0.016,-0.602,0.426
11/26/2023 22:29:19.120,-0.012,-0.617,0.418
11/26/2023 22:29:19.130,-0.043,-0.648,0.418
11/26/2023 22:29:19.140,-0.086,-0.691,0.426
11/26/2023 22:29:19.150,-0.117,-0.738,0.422
11/26/2023 22:29:19.160,-0.125,-0.77,0.398
11/26/2023 22:29:19.170,-0.125,-0.797,0.375
11/26/2023 22:29:19.180,-0.129,-0.828,0.383
11/26/2023 22:29:19.190,-0.137,-0.875,0.441
11/26/2023 22:29:19.200,-0.137,-0.926,0.504
11/26/2023 22:29:19.210,-0.133,-0.977,0.57
11/26/2023 22:29:19.220,-0.121,-1.027,0.609
11/26/2023 22:29:19.230,-0.105,-1.098,0.625
11/26/2023 22:29:19.240,-0.102,-1.223,0.664
11/26/2023 22:29:19.250,-0.109,-1.379,0.734
11/26/2023 22:29:19.260,-0.105,-1.496,0.762
11/26/2023 22:29:19.270,-0.078,-1.527,0.711
11/26/2023 22:29:19.280,-0.031,-1.477,0.582
11/26/2023 22:29:19.290,0.016,-1.391,0.445
11/26/2023 22:29:19.300,0.047,-1.34,0.363
11/26/2023 22:29:19.310,0.094,-1.297,0.34
11/26/2023 22:29:19.320,0.148,-1.25,0.324
11/26/2023 22:29:19.330,0.18,-1.199,0.258
11/26/2023 22:29:19.340,0.23,-1.152,0.168
11/26/2023 22:29:19.350,0.332,-1.129,0.156
11/26/2023 22:29:19.360,0.32,-1.141,0.105
11/26/2023 22:29:19.370,0.172,-1.141,-0.023
11/26/2023 22:29:19.380,0.051,-1.109,-0.156
11/26/2023 22:29:19.390,0.09,-1.051,-0.156
11/26/2023 22:29:19.400,0.125,-0.992,-0.117
11/26/2023 22:29:19.410,0.094,-0.949,-0.082
11/26/2023 22:29:19.420,0.086,-0.93,-0.008
11/26/2023 22:29:19.430,0.113,-0.906,0.094
11/26/2023 22:29:19.440,0.145,-0.871,0.188
11/26/2023 22:29:19.450,0.172,-0.832,0.289
11/26/2023 22:29:19.460,0.195,-0.813,0.363
11/26/2023 22:29:19.470,0.246,-0.801,0.398
11/26/2023 22:29:19.480,0.301,-0.809,0.398
11/26/2023 22:29:19.490,0.32,-0.828,0.375
11/26/2023 22:29:19.500,0.285,-0.855,0.34
11/26/2023 22:29:19.510,0.227,-0.887,0.289
11/26/2023 22:29:19.520,0.156,-0.906,0.238
11/26/2023 22:29:19.530,0.117,-0.902,0.195
11/26/2023 22:29:19.540,0.086,-0.879,0.152
11/26/2023 22:29:19.550,0.059,-0.852,0.109
11/26/2023 22:29:19.560,0.031,-0.801,0.078
11/26/2023 22:29:19.570,-0.004,-0.746,0.047
11/26/2023 22:29:19.580,-0.039,-0.707,0.039
11/26/2023 22:29:19.590,-0.078,-0.695,0.047
11/26/2023 22:29:19.600,-0.109,-0.703,0.066
11/26/2023 22:29:19.610,-0.125,-0.727,0.082
11/26/2023 22:29:19.620,-0.125,-0.766,0.098
11/26/2023 22:29:19.630,-0.113,-0.813,0.113
11/26/2023 22:29:19.640,-0.102,-0.867,0.133
11/26/2023 22:29:19.650,-0.082,-0.914,0.168
11/26/2023 22:29:19.660,-0.066,-0.961,0.207
11/26/2023 22:29:19.670,-0.063,-1,0.25
11/26/2023 22:29:19.680,-0.078,-1.023,0.277
11/26/2023 22:29:19.690,-0.113,-1.027,0.301
11/26/2023 22:29:19.700,-0.164,-1.027,0.309
11/26/2023 22:29:19.710,-0.219,-1.023,0.332
11/26/2023 22:29:19.720,-0.273,-1.035,0.355
11/26/2023 22:29:19.730,-0.316,-1.027,0.375
11/26/2023 22:29:19.740,-0.336,-1,0.387
11/26/2023 22:29:19.750,-0.34,-0.977,0.418
11/26/2023 22:29:19.760,-0.355,-0.969,0.461
11/26/2023 22:29:19.770,-0.332,-0.98,0.512
11/26/2023 22:29:19.780,-0.324,-1.016,0.574
11/26/2023 22:29:19.790,-0.32,-1.051,0.582
11/26/2023 22:29:19.800,-0.293,-1.082,0.516
11/26/2023 22:29:19.810,-0.285,-1.184,0.496
11/26/2023 22:29:19.820,-0.316,-1.277,0.422
11/26/2023 22:29:19.830,-0.227,-1.281,0.355
11/26/2023 22:29:19.840,-0.188,-1.32,0.281
11/26/2023 22:29:19.850,-0.098,-1.293,0.215
11/26/2023 22:29:19.860,0.016,-1.258,0.184
11/26/2023 22:29:19.870,0.055,-1.293,0.199
11/26/2023 22:29:19.880,0.133,-1.219,0.145
11/26/2023 22:29:19.890,0.199,-1.055,0.066
11/26/2023 22:29:19.900,0.219,-0.91,0.02
11/26/2023 22:29:19.910,0.254,-0.934,0.039
11/26/2023 22:29:19.920,0.328,-1.09,0.113
11/26/2023 22:29:19.930,0.375,-1.238,0.223
11/26/2023 22:29:19.940,0.375,-1.258,0.277
11/26/2023 22:29:19.950,0.34,-1.211,0.281
11/26/2023 22:29:19.960,0.313,-1.176,0.289
11/26/2023 22:29:19.970,0.277,-1.176,0.297
11/26/2023 22:29:19.980,0.238,-1.207,0.281
11/26/2023 22:29:19.990,0.203,-1.242,0.281
11/26/2023 22:29:20.000,0.191,-1.242,0.277
11/26/2023 22:29:20.010,0.156,-1.227,0.262
11/26/2023 22:29:20.020,0.094,-1.172,0.234
11/26/2023 22:29:20.030,0.047,-1.086,0.219
11/26/2023 22:29:20.040,-0.008,-0.98,0.207
11/26/2023 22:29:20.050,-0.066,-0.867,0.195
11/26/2023 22:29:20.060,-0.109,-0.766,0.191
11/26/2023 22:29:20.070,-0.137,-0.691,0.195
11/26/2023 22:29:20.080,-0.148,-0.645,0.184
11/26/2023 22:29:20.090,-0.145,-0.609,0.176
11/26/2023 22:29:20.100,-0.129,-0.594,0.168
11/26/2023 22:29:20.110,-0.105,-0.617,0.184
11/26/2023 22:29:20.120,-0.063,-0.656,0.223
11/26/2023 22:29:20.130,-0.012,-0.688,0.277
11/26/2023 22:29:20.140,0.023,-0.703,0.324
11/26/2023 22:29:20.150,0.047,-0.711,0.359
11/26/2023 22:29:20.160,0.055,-0.715,0.379
11/26/2023 22:29:20.170,0.047,-0.715,0.387
11/26/2023 22:29:20.180,0.027,-0.703,0.387
11/26/2023 22:29:20.190,0.008,-0.688,0.387
11/26/2023 22:29:20.200,-0.027,-0.68,0.395
11/26/2023 22:29:20.210,-0.078,-0.691,0.422
11/26/2023 22:29:20.220,-0.145,-0.695,0.434
11/26/2023 22:29:20.230,-0.195,-0.703,0.422
11/26/2023 22:29:20.240,-0.25,-0.719,0.41
11/26/2023 22:29:20.250,-0.277,-0.758,0.41
11/26/2023 22:29:20.260,-0.277,-0.82,0.418
11/26/2023 22:29:20.270,-0.234,-0.898,0.426
11/26/2023 22:29:20.280,-0.188,-0.988,0.41
11/26/2023 22:29:20.290,-0.125,-1.047,0.402
11/26/2023 22:29:20.300,-0.059,-1.094,0.418
11/26/2023 22:29:20.310,-0.008,-1.16,0.496
11/26/2023 22:29:20.320,0.043,-1.246,0.617
11/26/2023 22:29:20.330,0.078,-1.313,0.715
11/26/2023 22:29:20.340,0.105,-1.34,0.754
11/26/2023 22:29:20.350,0.141,-1.309,0.691
11/26/2023 22:29:20.360,0.207,-1.277,0.598
11/26/2023 22:29:20.370,0.258,-1.309,0.5
11/26/2023 22:29:20.380,0.277,-1.367,0.387
11/26/2023 22:29:20.390,0.32,-1.5,0.305
11/26/2023 22:29:20.400,0.27,-1.578,0.207
11/26/2023 22:29:20.410,0.367,-1.508,0.172
11/26/2023 22:29:20.420,0.418,-1.402,0.156
11/26/2023 22:29:20.430,0.32,-1.309,0.086
11/26/2023 22:29:20.440,0.188,-1.195,0.016
11/26/2023 22:29:20.450,0.098,-1.043,-0.031
11/26/2023 22:29:20.460,0.016,-0.871,-0.094
11/26/2023 22:29:20.470,-0.039,-0.742,-0.105
11/26/2023 22:29:20.480,-0.055,-0.715,-0.043
11/26/2023 22:29:20.490,-0.066,-0.777,0.063
11/26/2023 22:29:20.500,-0.074,-0.852,0.148
11/26/2023 22:29:20.510,-0.027,-0.887,0.211
11/26/2023 22:29:20.520,0.035,-0.883,0.234
11/26/2023 22:29:20.530,0.105,-0.867,0.254
11/26/2023 22:29:20.540,0.176,-0.867,0.285
11/26/2023 22:29:20.550,0.246,-0.879,0.313
11/26/2023 22:29:20.560,0.285,-0.91,0.336
11/26/2023 22:29:20.570,0.309,-0.93,0.344
11/26/2023 22:29:20.580,0.293,-0.941,0.324
11/26/2023 22:29:20.590,0.246,-0.926,0.27
11/26/2023 22:29:20.600,0.195,-0.891,0.211
11/26/2023 22:29:20.610,0.141,-0.848,0.168
11/26/2023 22:29:20.620,0.09,-0.828,0.145
11/26/2023 22:29:20.630,0.043,-0.813,0.133
11/26/2023 22:29:20.640,-0.012,-0.797,0.121
11/26/2023 22:29:20.650,-0.066,-0.762,0.109
11/26/2023 22:29:20.660,-0.141,-0.734,0.098
11/26/2023 22:29:20.670,-0.184,-0.723,0.102
11/26/2023 22:29:20.680,-0.191,-0.723,0.113
11/26/2023 22:29:20.690,-0.176,-0.73,0.121
11/26/2023 22:29:20.700,-0.156,-0.758,0.137
11/26/2023 22:29:20.710,-0.125,-0.809,0.172
11/26/2023 22:29:20.720,-0.086,-0.863,0.215
11/26/2023 22:29:20.730,-0.051,-0.918,0.258
11/26/2023 22:29:20.740,-0.035,-0.941,0.297
11/26/2023 22:29:20.750,-0.027,-0.945,0.316
11/26/2023 22:29:20.760,-0.043,-0.934,0.328
11/26/2023 22:29:20.770,-0.074,-0.93,0.336
11/26/2023 22:29:20.780,-0.129,-0.934,0.328
11/26/2023 22:29:20.790,-0.184,-0.961,0.324
11/26/2023 22:29:20.800,-0.227,-0.996,0.336
11/26/2023 22:29:20.810,-0.258,-1.031,0.348
11/26/2023 22:29:20.820,-0.246,-1.066,0.355
11/26/2023 22:29:20.830,-0.305,-1.121,0.367
11/26/2023 22:29:20.840,-0.344,-1.184,0.406
11/26/2023 22:29:20.850,-0.324,-1.211,0.465
11/26/2023 22:29:20.860,-0.316,-1.203,0.465
11/26/2023 22:29:20.870,-0.305,-1.18,0.426
11/26/2023 22:29:20.880,-0.25,-1.16,0.375
11/26/2023 22:29:20.890,-0.176,-1.164,0.316
11/26/2023 22:29:20.900,-0.148,-1.191,0.289
11/26/2023 22:29:20.910,-0.16,-1.23,0.324
11/26/2023 22:29:20.920,-0.113,-1.207,0.375
11/26/2023 22:29:20.930,-0.023,-1.176,0.363
11/26/2023 22:29:20.940,0.07,-1.152,0.27
11/26/2023 22:29:20.950,0.121,-1.105,0.137
11/26/2023 22:29:20.960,0.148,-1.031,0.039
11/26/2023 22:29:20.970,0.191,-0.93,-0.023
11/26/2023 22:29:20.980,0.246,-0.953,0.031
11/26/2023 22:29:20.990,0.285,-1.063,0.176
11/26/2023 22:29:21.000,0.277,-1.203,0.352
11/26/2023 22:29:21.010,0.25,-1.289,0.449
11/26/2023 22:29:21.020,0.27,-1.297,0.473
11/26/2023 22:29:21.030,0.207,-1.281,0.422
11/26/2023 22:29:21.040,0.184,-1.246,0.379
11/26/2023 22:29:21.050,0.16,-1.211,0.332
11/26/2023 22:29:21.060,0.121,-1.176,0.293
11/26/2023 22:29:21.070,0.094,-1.121,0.266
11/26/2023 22:29:21.080,0.035,-1.07,0.242
11/26/2023 22:29:21.090,-0.02,-1.004,0.227
11/26/2023 22:29:21.100,-0.063,-0.926,0.215
11/26/2023 22:29:21.110,-0.094,-0.824,0.199
11/26/2023 22:29:21.120,-0.113,-0.723,0.203
11/26/2023 22:29:21.130,-0.125,-0.656,0.223
11/26/2023 22:29:21.140,-0.148,-0.621,0.246
11/26/2023 22:29:21.150,-0.168,-0.617,0.266
11/26/2023 22:29:21.160,-0.18,-0.637,0.289
11/26/2023 22:29:21.170,-0.164,-0.656,0.309
11/26/2023 22:29:21.180,-0.117,-0.684,0.332
11/26/2023 22:29:21.190,-0.066,-0.703,0.352
11/26/2023 22:29:21.200,-0.031,-0.727,0.375
11/26/2023 22:29:21.210,-0.023,-0.734,0.391
11/26/2023 22:29:21.220,-0.02,-0.734,0.395
11/26/2023 22:29:21.230,-0.012,-0.727,0.395
11/26/2023 22:29:21.240,-0.023,-0.715,0.395
11/26/2023 22:29:21.250,-0.055,-0.707,0.391
11/26/2023 22:29:21.260,-0.09,-0.699,0.383
11/26/2023 22:29:21.270,-0.113,-0.703,0.383
11/26/2023 22:29:21.280,-0.145,-0.727,0.371
11/26/2023 22:29:21.290,-0.148,-0.758,0.363
11/26/2023 22:29:21.300,-0.148,-0.797,0.371
11/26/2023 22:29:21.310,-0.148,-0.855,0.406
11/26/2023 22:29:21.320,-0.145,-0.906,0.445
11/26/2023 22:29:21.330,-0.105,-0.945,0.477
11/26/2023 22:29:21.340,-0.035,-0.969,0.48
11/26/2023 22:29:21.350,0.039,-0.996,0.488
11/26/2023 22:29:21.360,0.086,-1.055,0.531
11/26/2023 22:29:21.370,0.129,-1.141,0.617
11/26/2023 22:29:21.380,0.125,-1.234,0.707
11/26/2023 22:29:21.390,0.094,-1.309,0.762
11/26/2023 22:29:21.400,0.055,-1.328,0.734
11/26/2023 22:29:21.410,0.039,-1.25,0.582
11/26/2023 22:29:21.420,-0.008,-1.141,0.406
11/26/2023 22:29:21.430,-0.109,-1.16,0.324
11/26/2023 22:29:21.440,-0.148,-1.238,0.277
11/26/2023 22:29:21.450,-0.133,-1.301,0.23
11/26/2023 22:29:21.460,-0.074,-1.313,0.211
11/26/2023 22:29:21.470,0.039,-1.309,0.211
11/26/2023 22:29:21.480,0.145,-1.328,0.191
11/26/2023 22:29:21.490,0.191,-1.375,0.18
11/26/2023 22:29:21.500,0.129,-1.402,0.113
11/26/2023 22:29:21.510,0.082,-1.313,-0.004
11/26/2023 22:29:21.520,0.137,-1.125,-0.066
11/26/2023 22:29:21.530,0.168,-0.941,-0.09
11/26/2023 22:29:21.540,0.141,-0.816,-0.066
11/26/2023 22:29:21.550,0.121,-0.773,0.004
11/26/2023 22:29:21.560,0.121,-0.785,0.113
11/26/2023 22:29:21.570,0.125,-0.801,0.215
11/26/2023 22:29:21.580,0.129,-0.805,0.285
11/26/2023 22:29:21.590,0.137,-0.789,0.316
11/26/2023 22:29:21.600,0.148,-0.793,0.328
11/26/2023 22:29:21.610,0.164,-0.824,0.324
11/26/2023 22:29:21.620,0.176,-0.875,0.309
11/26/2023 22:29:21.630,0.16,-0.949,0.289
11/26/2023 22:29:21.640,0.129,-1.016,0.25
11/26/2023 22:29:21.650,0.098,-1.047,0.199
11/26/2023 22:29:21.660,0.074,-1.043,0.156
11/26/2023 22:29:21.670,0.047,-1.012,0.125
11/26/2023 22:29:21.680,0.016,-0.961,0.113
11/26/2023 22:29:21.690,-0.016,-0.914,0.109
11/26/2023 22:29:21.700,-0.035,-0.855,0.105
11/26/2023 22:29:21.710,-0.063,-0.797,0.105
11/26/2023 22:29:21.720,-0.098,-0.754,0.102
11/26/2023 22:29:21.730,-0.121,-0.727,0.109
11/26/2023 22:29:21.740,-0.133,-0.715,0.137
11/26/2023 22:29:21.750,-0.133,-0.719,0.168
11/26/2023 22:29:21.760,-0.117,-0.746,0.211
11/26/2023 22:29:21.770,-0.105,-0.785,0.246
11/26/2023 22:29:21.780,-0.082,-0.832,0.27
11/26/2023 22:29:21.790,-0.055,-0.879,0.297
11/26/2023 22:29:21.800,-0.027,-0.91,0.301
11/26/2023 22:29:21.810,-0.012,-0.945,0.289
11/26/2023 22:29:21.820,0,-0.965,0.266
11/26/2023 22:29:21.830,0.004,-0.996,0.254
11/26/2023 22:29:21.840,-0.004,-1.035,0.266
11/26/2023 22:29:21.850,-0.035,-1.078,0.305
11/26/2023 22:29:21.860,-0.09,-1.129,0.336
11/26/2023 22:29:21.870,-0.133,-1.16,0.367
11/26/2023 22:29:21.880,-0.184,-1.18,0.383
11/26/2023 22:29:21.890,-0.254,-1.195,0.402
11/26/2023 22:29:21.900,-0.34,-1.207,0.406
11/26/2023 22:29:21.910,-0.422,-1.191,0.383
11/26/2023 22:29:21.920,-0.469,-1.133,0.344
11/26/2023 22:29:21.930,-0.473,-1.051,0.328
11/26/2023 22:29:21.940,-0.453,-0.984,0.313
11/26/2023 22:29:21.950,-0.375,-0.949,0.297
11/26/2023 22:29:21.960,-0.207,-0.945,0.266
11/26/2023 22:29:21.970,-0.105,-1.004,0.234
11/26/2023 22:29:21.980,-0.066,-1.125,0.281
11/26/2023 22:29:21.990,0.016,-1.273,0.305
11/26/2023 22:29:22.000,0.066,-1.289,0.227
11/26/2023 22:29:22.010,0.117,-1.18,0.086
11/26/2023 22:29:22.020,0.152,-1.004,-0.027
11/26/2023 22:29:22.030,0.133,-0.977,-0.008
11/26/2023 22:29:22.040,0.125,-1.074,0.113
11/26/2023 22:29:22.050,0.113,-1.156,0.242
11/26/2023 22:29:22.060,0.109,-1.176,0.316
11/26/2023 22:29:22.070,0.086,-1.098,0.305
11/26/2023 22:29:22.080,0.004,-1.102,0.285
11/26/2023 22:29:22.090,-0.02,-1.133,0.27
11/26/2023 22:29:22.100,-0.039,-1.137,0.211
11/26/2023 22:29:22.110,-0.063,-1.117,0.168
11/26/2023 22:29:22.120,-0.09,-1.098,0.152
11/26/2023 22:29:22.130,-0.086,-1.074,0.16
11/26/2023 22:29:22.140,-0.07,-1.047,0.172
11/26/2023 22:29:22.150,-0.047,-1,0.188
11/26/2023 22:29:22.160,-0.039,-0.961,0.207
11/26/2023 22:29:22.170,-0.039,-0.914,0.238
11/26/2023 22:29:22.180,-0.035,-0.883,0.262
11/26/2023 22:29:22.190,-0.023,-0.848,0.289
11/26/2023 22:29:22.200,-0.031,-0.816,0.305
11/26/2023 22:29:22.210,-0.027,-0.789,0.316
11/26/2023 22:29:22.220,-0.02,-0.773,0.32
11/26/2023 22:29:22.230,-0.016,-0.777,0.332
11/26/2023 22:29:22.240,-0.012,-0.781,0.348
11/26/2023 22:29:22.250,-0.016,-0.781,0.352
11/26/2023 22:29:22.260,-0.031,-0.781,0.352
11/26/2023 22:29:22.270,-0.039,-0.77,0.363
11/26/2023 22:29:22.280,-0.051,-0.766,0.379
11/26/2023 22:29:22.290,-0.059,-0.762,0.379
11/26/2023 22:29:22.300,-0.051,-0.754,0.363
11/26/2023 22:29:22.310,-0.043,-0.734,0.336
11/26/2023 22:29:22.320,-0.035,-0.715,0.324
11/26/2023 22:29:22.330,-0.016,-0.707,0.316
11/26/2023 22:29:22.340,-0.004,-0.707,0.293
11/26/2023 22:29:22.350,0.039,-0.711,0.289
11/26/2023 22:29:22.360,0.117,-0.746,0.355
11/26/2023 22:29:22.370,0.133,-0.797,0.445
11/26/2023 22:29:22.380,0.055,-0.859,0.52
11/26/2023 22:29:22.390,0.035,-0.883,0.57
11/26/2023 22:29:22.400,0.051,-0.93,0.645
11/26/2023 22:29:22.410,-0.02,-1.059,0.691
11/26/2023 22:29:22.420,-0.102,-1.172,0.629
11/26/2023 22:29:22.430,-0.18,-1.199,0.512
11/26/2023 22:29:22.440,-0.281,-1.184,0.445
11/26/2023 22:29:22.450,-0.34,-1.141,0.391
11/26/2023 22:29:22.460,-0.34,-1.09,0.313
11/26/2023 22:29:22.470,-0.332,-1.059,0.23
11/26/2023 22:29:22.480,-0.348,-1.082,0.184
11/26/2023 22:29:22.490,-0.352,-1.148,0.211
11/26/2023 22:29:22.500,-0.309,-1.23,0.242
11/26/2023 22:29:22.510,-0.156,-1.309,0.242
11/26/2023 22:29:22.520,0.047,-1.395,0.215
11/26/2023 22:29:22.530,0.23,-1.516,0.203
11/26/2023 22:29:22.540,0.352,-1.656,0.223
11/26/2023 22:29:22.550,0.395,-1.734,0.215
11/26/2023 22:29:22.560,0.414,-1.68,0.172
11/26/2023 22:29:22.570,0.402,-1.484,0.063
11/26/2023 22:29:22.580,0.336,-1.23,-0.07
11/26/2023 22:29:22.590,0.23,-1.008,-0.133
11/26/2023 22:29:22.600,0.09,-0.871,-0.117
11/26/2023 22:29:22.610,-0.043,-0.785,-0.078
11/26/2023 22:29:22.620,-0.137,-0.73,-0.035
11/26/2023 22:29:22.630,-0.176,-0.68,0
11/26/2023 22:29:22.640,-0.152,-0.641,0.051
11/26/2023 22:29:22.650,-0.102,-0.629,0.121
11/26/2023 22:29:22.660,-0.035,-0.648,0.18
11/26/2023 22:29:22.670,0.043,-0.699,0.223
11/26/2023 22:29:22.680,0.125,-0.785,0.258
11/26/2023 22:29:22.690,0.195,-0.898,0.277
11/26/2023 22:29:22.700,0.242,-1.008,0.293
11/26/2023 22:29:22.710,0.266,-1.078,0.281
11/26/2023 22:29:22.720,0.266,-1.105,0.25
11/26/2023 22:29:22.730,0.25,-1.066,0.207
11/26/2023 22:29:22.740,0.199,-0.996,0.172
11/26/2023 22:29:22.750,0.133,-0.926,0.145
11/26/2023 22:29:22.760,0.074,-0.867,0.141
11/26/2023 22:29:22.770,0.012,-0.82,0.141
11/26/2023 22:29:22.780,-0.051,-0.773,0.133
11/26/2023 22:29:22.790,-0.109,-0.746,0.121
11/26/2023 22:29:22.800,-0.16,-0.754,0.129
11/26/2023 22:29:22.810,-0.203,-0.766,0.145
11/26/2023 22:29:22.820,-0.219,-0.785,0.152
11/26/2023 22:29:22.830,-0.215,-0.805,0.164
11/26/2023 22:29:22.840,-0.203,-0.836,0.172
11/26/2023 22:29:22.850,-0.176,-0.887,0.18
11/26/2023 22:29:22.860,-0.137,-0.941,0.195
11/26/2023 22:29:22.870,-0.109,-0.973,0.207
11/26/2023 22:29:22.880,-0.09,-0.996,0.215
11/26/2023 22:29:22.890,-0.074,-1.004,0.23
11/26/2023 22:29:22.900,-0.063,-0.992,0.242
11/26/2023 22:29:22.910,-0.066,-0.977,0.254
11/26/2023 22:29:22.920,-0.07,-0.977,0.293
11/26/2023 22:29:22.930,-0.082,-0.988,0.355
11/26/2023 22:29:22.940,-0.102,-1.008,0.418
11/26/2023 22:29:22.950,-0.137,-1.035,0.469
11/26/2023 22:29:22.960,-0.184,-1.066,0.504
11/26/2023 22:29:22.970,-0.234,-1.094,0.5
11/26/2023 22:29:22.980,-0.277,-1.109,0.461
11/26/2023 22:29:22.990,-0.301,-1.105,0.406
11/26/2023 22:29:23.000,-0.293,-1.094,0.363
11/26/2023 22:29:23.010,-0.238,-1.094,0.367
11/26/2023 22:29:23.020,-0.191,-1.121,0.363
11/26/2023 22:29:23.030,-0.129,-1.164,0.348
11/26/2023 22:29:23.040,-0.086,-1.191,0.32
11/26/2023 22:29:23.050,-0.082,-1.184,0.281
11/26/2023 22:29:23.060,-0.086,-1.184,0.27
11/26/2023 22:29:23.070,-0.082,-1.207,0.211
11/26/2023 22:29:23.080,-0.051,-1.203,0.082
11/26/2023 22:29:23.090,0.043,-1.191,-0.039
11/26/2023 22:29:23.100,0.078,-1.199,-0.102
11/26/2023 22:29:23.110,0.059,-1.121,-0.102
11/26/2023 22:29:23.120,0.141,-1.07,0.023
11/26/2023 22:29:23.130,0.23,-1.109,0.188
11/26/2023 22:29:23.140,0.246,-1.18,0.285
11/26/2023 22:29:23.150,0.195,-1.199,0.313
11/26/2023 22:29:23.160,0.152,-1.156,0.316
11/26/2023 22:29:23.170,0.117,-1.121,0.313
11/26/2023 22:29:23.180,0.07,-1.109,0.285
11/26/2023 22:29:23.190,0.023,-1.098,0.246
11/26/2023 22:29:23.200,-0.023,-1.07,0.211
11/26/2023 22:29:23.210,-0.059,-1.047,0.184
11/26/2023 22:29:23.220,-0.078,-1.027,0.18
11/26/2023 22:29:23.230,-0.094,-1.004,0.188
11/26/2023 22:29:23.240,-0.102,-0.973,0.184
11/26/2023 22:29:23.250,-0.109,-0.914,0.176
11/26/2023 22:29:23.260,-0.098,-0.84,0.18
11/26/2023 22:29:23.270,-0.074,-0.77,0.188
11/26/2023 22:29:23.280,-0.059,-0.719,0.195
11/26/2023 22:29:23.290,-0.039,-0.691,0.215
11/26/2023 22:29:23.300,-0.016,-0.691,0.242
11/26/2023 22:29:23.310,0,-0.707,0.285
11/26/2023 22:29:23.320,0.016,-0.727,0.32
11/26/2023 22:29:23.330,0.02,-0.754,0.359
11/26/2023 22:29:23.340,0.027,-0.777,0.379
11/26/2023 22:29:23.350,0.031,-0.789,0.383
11/26/2023 22:29:23.360,0.023,-0.805,0.383
11/26/2023 22:29:23.370,0.008,-0.805,0.375
11/26/2023 22:29:23.380,-0.012,-0.797,0.363
11/26/2023 22:29:23.390,-0.047,-0.773,0.352
11/26/2023 22:29:23.400,-0.09,-0.75,0.344
11/26/2023 22:29:23.410,-0.125,-0.73,0.328
11/26/2023 22:29:23.420,-0.164,-0.727,0.316
11/26/2023 22:29:23.430,-0.195,-0.723,0.313
11/26/2023 22:29:23.440,-0.207,-0.738,0.324
11/26/2023 22:29:23.450,-0.227,-0.754,0.332
11/26/2023 22:29:23.460,-0.227,-0.773,0.324
11/26/2023 22:29:23.470,-0.176,-0.793,0.32
11/26/2023 22:29:23.480,-0.113,-0.859,0.363
11/26/2023 22:29:23.490,-0.066,-0.988,0.43
11/26/2023 22:29:23.500,-0.016,-1.109,0.477
11/26/2023 22:29:23.510,0.063,-1.188,0.527
11/26/2023 22:29:23.520,0.105,-1.234,0.582
11/26/2023 22:29:23.530,0.098,-1.281,0.645
11/26/2023 22:29:23.540,0.063,-1.305,0.684
11/26/2023 22:29:23.550,-0.016,-1.277,0.66
11/26/2023 22:29:23.560,-0.082,-1.211,0.566
11/26/2023 22:29:23.570,-0.082,-1.129,0.449
11/26/2023 22:29:23.580,-0.125,-1.133,0.371
11/26/2023 22:29:23.590,-0.199,-1.211,0.301
11/26/2023 22:29:23.600,-0.199,-1.301,0.227
11/26/2023 22:29:23.610,-0.059,-1.352,0.191
11/26/2023 22:29:23.620,0.133,-1.375,0.184
11/26/2023 22:29:23.630,0.273,-1.406,0.18
11/26/2023 22:29:23.640,0.398,-1.438,0.191
11/26/2023 22:29:23.650,0.477,-1.469,0.207
11/26/2023 22:29:23.660,0.48,-1.445,0.219
11/26/2023 22:29:23.670,0.41,-1.324,0.188
11/26/2023 22:29:23.680,0.316,-1.121,0.117
11/26/2023 22:29:23.690,0.203,-0.871,0.016
11/26/2023 22:29:23.700,0.063,-0.684,-0.059
11/26/2023 22:29:23.710,-0.078,-0.617,-0.078
11/26/2023 22:29:23.720,-0.188,-0.66,-0.051
11/26/2023 22:29:23.730,-0.23,-0.734,-0.012
11/26/2023 22:29:23.740,-0.203,-0.789,0.043
11/26/2023 22:29:23.750,-0.129,-0.816,0.105
11/26/2023 22:29:23.760,-0.035,-0.824,0.152
11/26/2023 22:29:23.770,0.051,-0.832,0.191
11/26/2023 22:29:23.780,0.148,-0.863,0.238
11/26/2023 22:29:23.790,0.238,-0.914,0.289
11/26/2023 22:29:23.800,0.309,-0.969,0.328
11/26/2023 22:29:23.810,0.332,-1.004,0.344
11/26/2023 22:29:23.820,0.332,-0.984,0.324
11/26/2023 22:29:23.830,0.305,-0.93,0.285
11/26/2023 22:29:23.840,0.25,-0.855,0.238
11/26/2023 22:29:23.850,0.16,-0.805,0.184
11/26/2023 22:29:23.860,0.07,-0.777,0.148
11/26/2023 22:29:23.870,-0.016,-0.766,0.125
11/26/2023 22:29:23.880,-0.094,-0.762,0.09
11/26/2023 22:29:23.890,-0.152,-0.762,0.066
11/26/2023 22:29:23.900,-0.203,-0.785,0.063
11/26/2023 22:29:23.910,-0.23,-0.836,0.07
11/26/2023 22:29:23.920,-0.23,-0.875,0.102
11/26/2023 22:29:23.930,-0.207,-0.898,0.133
11/26/2023 22:29:23.940,-0.172,-0.91,0.164
11/26/2023 22:29:23.950,-0.145,-0.914,0.191
11/26/2023 22:29:23.960,-0.117,-0.918,0.227
11/26/2023 22:29:23.970,-0.082,-0.91,0.254
11/26/2023 22:29:23.980,-0.055,-0.902,0.281
11/26/2023 22:29:23.990,-0.047,-0.898,0.281
11/26/2023 22:29:24.000,-0.063,-0.914,0.289
11/26/2023 22:29:24.010,-0.066,-0.973,0.316
11/26/2023 22:29:24.020,-0.07,-1.039,0.348
11/26/2023 22:29:24.030,-0.09,-1.125,0.379
11/26/2023 22:29:24.040,-0.129,-1.219,0.406
11/26/2023 22:29:24.050,-0.168,-1.297,0.426
11/26/2023 22:29:24.060,-0.211,-1.328,0.426
11/26/2023 22:29:24.070,-0.266,-1.309,0.387
11/26/2023 22:29:24.080,-0.297,-1.227,0.348
11/26/2023 22:29:24.090,-0.301,-1.121,0.309
11/26/2023 22:29:24.100,-0.277,-1.035,0.285
11/26/2023 22:29:24.110,-0.223,-0.996,0.281
11/26/2023 22:29:24.120,-0.145,-1.008,0.293
11/26/2023 22:29:24.130,-0.078,-1.043,0.309
11/26/2023 22:29:24.140,-0.043,-1.07,0.336
11/26/2023 22:29:24.150,0.012,-1.063,0.359
11/26/2023 22:29:24.160,0.07,-1.051,0.352
11/26/2023 22:29:24.170,0.074,-1.039,0.242
11/26/2023 22:29:24.180,0.086,-1.016,0.117
11/26/2023 22:29:24.190,0.113,-1,0.027
11/26/2023 22:29:24.200,0.148,-1.02,-0.031
11/26/2023 22:29:24.210,0.195,-1.086,-0.063
11/26/2023 22:29:24.220,0.176,-1.188,-0.031
11/26/2023 22:29:24.230,0.109,-1.32,0.082
11/26/2023 22:29:24.240,0.07,-1.422,0.227
11/26/2023 22:29:24.250,0.09,-1.473,0.305
11/26/2023 22:29:24.260,0.125,-1.465,0.301
11/26/2023 22:29:24.270,0.141,-1.426,0.289
11/26/2023 22:29:24.280,0.117,-1.359,0.277
11/26/2023 22:29:24.290,0.094,-1.25,0.246
11/26/2023 22:29:24.300,0.074,-1.113,0.207
11/26/2023 22:29:24.310,0.055,-1.004,0.18
11/26/2023 22:29:24.320,0.012,-0.922,0.156
11/26/2023 22:29:24.330,-0.039,-0.867,0.137
11/26/2023 22:29:24.340,-0.078,-0.801,0.113
11/26/2023 22:29:24.350,-0.102,-0.734,0.094
11/26/2023 22:29:24.360,-0.121,-0.676,0.09
11/26/2023 22:29:24.370,-0.152,-0.656,0.109
11/26/2023 22:29:24.380,-0.184,-0.668,0.148
11/26/2023 22:29:24.390,-0.184,-0.711,0.188
11/26/2023 22:29:24.400,-0.156,-0.758,0.195
11/26/2023 22:29:24.410,-0.098,-0.801,0.195
11/26/2023 22:29:24.420,-0.02,-0.82,0.203
11/26/2023 22:29:24.430,0.047,-0.828,0.23
11/26/2023 22:29:24.440,0.094,-0.832,0.262
11/26/2023 22:29:24.450,0.113,-0.832,0.305
11/26/2023 22:29:24.460,0.109,-0.832,0.34
11/26/2023 22:29:24.470,0.078,-0.813,0.352
11/26/2023 22:29:24.480,0.039,-0.77,0.352
11/26/2023 22:29:24.490,-0.004,-0.719,0.355
11/26/2023 22:29:24.500,-0.047,-0.684,0.348
11/26/2023 22:29:24.510,-0.066,-0.668,0.352
11/26/2023 22:29:24.520,-0.094,-0.672,0.375
11/26/2023 22:29:24.530,-0.133,-0.699,0.406
11/26/2023 22:29:24.540,-0.164,-0.734,0.434
11/26/2023 22:29:24.550,-0.156,-0.777,0.426
11/26/2023 22:29:24.560,-0.109,-0.828,0.391
11/26/2023 22:29:24.570,-0.043,-0.895,0.359
11/26/2023 22:29:24.580,0,-0.984,0.375
11/26/2023 22:29:24.590,0.012,-1.098,0.438
11/26/2023 22:29:24.600,0.023,-1.223,0.531
11/26/2023 22:29:24.610,0.035,-1.32,0.609
11/26/2023 22:29:24.620,0.047,-1.359,0.641
11/26/2023 22:29:24.630,0.043,-1.32,0.633
11/26/2023 22:29:24.640,0.004,-1.227,0.602
11/26/2023 22:29:24.650,-0.059,-1.121,0.547
11/26/2023 22:29:24.660,-0.148,-1.027,0.473
11/26/2023 22:29:24.670,-0.234,-0.957,0.363
11/26/2023 22:29:24.680,-0.281,-0.957,0.254
11/26/2023 22:29:24.690,-0.273,-1.016,0.176
11/26/2023 22:29:24.700,-0.172,-1.102,0.129
11/26/2023 22:29:24.710,-0.043,-1.207,0.094
11/26/2023 22:29:24.720,0.066,-1.328,0.023
11/26/2023 22:29:24.730,0.148,-1.449,-0.055
11/26/2023 22:29:24.740,0.195,-1.574,-0.078
11/26/2023 22:29:24.750,0.215,-1.633,-0.09
11/26/2023 22:29:24.760,0.215,-1.523,-0.117
11/26/2023 22:29:24.770,0.207,-1.277,-0.156
11/26/2023 22:29:24.780,0.191,-1.016,-0.156
11/26/2023 22:29:24.790,0.145,-0.84,-0.082
11/26/2023 22:29:24.800,0.102,-0.781,0.066
11/26/2023 22:29:24.810,0.059,-0.758,0.195
11/26/2023 22:29:24.820,0.012,-0.719,0.281
11/26/2023 22:29:24.830,-0.008,-0.676,0.328
11/26/2023 22:29:24.840,0,-0.676,0.363
11/26/2023 22:29:24.850,0.02,-0.727,0.367
11/26/2023 22:29:24.860,0.043,-0.828,0.352
11/26/2023 22:29:24.870,0.055,-0.953,0.313
11/26/2023 22:29:24.880,0.059,-1.063,0.258
11/26/2023 22:29:24.890,0.07,-1.121,0.195
11/26/2023 22:29:24.900,0.082,-1.125,0.145
11/26/2023 22:29:24.910,0.09,-1.086,0.117
11/26/2023 22:29:24.920,0.09,-1.02,0.102
11/26/2023 22:29:24.930,0.066,-0.938,0.09
11/26/2023 22:29:24.940,0.02,-0.836,0.082
11/26/2023 22:29:24.950,-0.047,-0.77,0.07
11/26/2023 22:29:24.960,-0.121,-0.746,0.074
11/26/2023 22:29:24.970,-0.172,-0.742,0.09
11/26/2023 22:29:24.980,-0.207,-0.746,0.113
11/26/2023 22:29:24.990,-0.215,-0.754,0.141
11/26/2023 22:29:25.000,-0.219,-0.777,0.168
11/26/2023 22:29:25.010,-0.199,-0.816,0.199
11/26/2023 22:29:25.020,-0.172,-0.859,0.223
11/26/2023 22:29:25.030,-0.141,-0.887,0.246
11/26/2023 22:29:25.040,-0.117,-0.918,0.258
11/26/2023 22:29:25.050,-0.102,-0.93,0.266
11/26/2023 22:29:25.060,-0.102,-0.922,0.246
11/26/2023 22:29:25.070,-0.125,-0.902,0.227
11/26/2023 22:29:25.080,-0.16,-0.883,0.207
11/26/2023 22:29:25.090,-0.195,-0.891,0.207
11/26/2023 22:29:25.100,-0.234,-0.926,0.238
11/26/2023 22:29:25.110,-0.277,-0.984,0.293
11/26/2023 22:29:25.120,-0.316,-1.074,0.328
11/26/2023 22:29:25.130,-0.324,-1.145,0.355
11/26/2023 22:29:25.140,-0.305,-1.188,0.367
11/26/2023 22:29:25.150,-0.289,-1.203,0.371
11/26/2023 22:29:25.160,-0.273,-1.227,0.395
11/26/2023 22:29:25.170,-0.234,-1.25,0.445
11/26/2023 22:29:25.180,-0.18,-1.258,0.477
11/26/2023 22:29:25.190,-0.098,-1.23,0.441
11/26/2023 22:29:25.200,-0.023,-1.203,0.363
11/26/2023 22:29:25.210,0.016,-1.191,0.289
11/26/2023 22:29:25.220,0.02,-1.219,0.25
11/26/2023 22:29:25.230,0.012,-1.262,0.234
11/26/2023 22:29:25.240,0.027,-1.281,0.16
11/26/2023 22:29:25.250,0.125,-1.301,0.055
11/26/2023 22:29:25.260,0.148,-1.25,-0.027
11/26/2023 22:29:25.270,0.082,-1.105,-0.117
11/26/2023 22:29:25.280,0.09,-1.031,-0.102
11/26/2023 22:29:25.290,0.207,-1.07,0.031
11/26/2023 22:29:25.300,0.254,-1.199,0.18
11/26/2023 22:29:25.310,0.258,-1.273,0.289
11/26/2023 22:29:25.320,0.27,-1.227,0.344
11/26/2023 22:29:25.330,0.234,-1.152,0.328
11/26/2023 22:29:25.340,0.191,-1.086,0.293
11/26/2023 22:29:25.350,0.156,-1.066,0.266
11/26/2023 22:29:25.360,0.121,-1.094,0.262
11/26/2023 22:29:25.370,0.086,-1.129,0.27
11/26/2023 22:29:25.380,0.02,-1.109,0.246
11/26/2023 22:29:25.390,-0.035,-1.043,0.207
11/26/2023 22:29:25.400,-0.09,-0.984,0.184
11/26/2023 22:29:25.410,-0.102,-0.938,0.191
11/26/2023 22:29:25.420,-0.141,-0.867,0.195
11/26/2023 22:29:25.430,-0.172,-0.781,0.203
11/26/2023 22:29:25.440,-0.172,-0.688,0.219
11/26/2023 22:29:25.450,-0.168,-0.617,0.23
11/26/2023 22:29:25.460,-0.145,-0.57,0.258
11/26/2023 22:29:25.470,-0.105,-0.566,0.293
11/26/2023 22:29:25.480,-0.059,-0.582,0.34
11/26/2023 22:29:25.490,-0.035,-0.621,0.391
11/26/2023 22:29:25.500,-0.027,-0.66,0.457
11/26/2023 22:29:25.510,-0.023,-0.684,0.508
11/26/2023 22:29:25.520,-0.031,-0.703,0.527
11/26/2023 22:29:25.530,-0.035,-0.703,0.531
11/26/2023 22:29:25.540,-0.055,-0.691,0.496
11/26/2023 22:29:25.550,-0.07,-0.668,0.445
11/26/2023 22:29:25.560,-0.094,-0.637,0.391
11/26/2023 22:29:25.570,-0.141,-0.621,0.355
11/26/2023 22:29:25.580,-0.191,-0.633,0.355
11/26/2023 22:29:25.590,-0.23,-0.672,0.359
11/26/2023 22:29:25.600,-0.223,-0.727,0.359
11/26/2023 22:29:25.610,-0.176,-0.797,0.406
11/26/2023 22:29:25.620,-0.152,-0.898,0.461
11/26/2023 22:29:25.630,-0.113,-0.969,0.492
11/26/2023 22:29:25.640,-0.035,-1.008,0.48
11/26/2023 22:29:25.650,0.016,-1.043,0.461
11/26/2023 22:29:25.660,0.016,-1.102,0.469
11/26/2023 22:29:25.670,-0.008,-1.211,0.508
11/26/2023 22:29:25.680,-0.02,-1.344,0.59
11/26/2023 22:29:25.690,-0.012,-1.426,0.656
11/26/2023 22:29:25.700,-0.012,-1.426,0.645
11/26/2023 22:29:25.710,-0.051,-1.359,0.559
11/26/2023 22:29:25.720,-0.094,-1.305,0.473
11/26/2023 22:29:25.730,-0.094,-1.281,0.398
11/26/2023 22:29:25.740,-0.059,-1.281,0.324
11/26/2023 22:29:25.750,0.008,-1.293,0.27
11/26/2023 22:29:25.760,0.109,-1.293,0.258
11/26/2023 22:29:25.770,0.227,-1.301,0.262
11/26/2023 22:29:25.780,0.289,-1.32,0.246
11/26/2023 22:29:25.790,0.297,-1.332,0.207
11/26/2023 22:29:25.800,0.242,-1.313,0.141
11/26/2023 22:29:25.810,0.191,-1.211,0.059
11/26/2023 22:29:25.820,0.172,-1.02,-0.02
11/26/2023 22:29:25.830,0.145,-0.832,-0.063
11/26/2023 22:29:25.840,0.094,-0.723,-0.039
11/26/2023 22:29:25.850,0.043,-0.734,0.043
11/26/2023 22:29:25.860,0.027,-0.805,0.145
11/26/2023 22:29:25.870,0.059,-0.867,0.238
11/26/2023 22:29:25.880,0.102,-0.879,0.289
11/26/2023 22:29:25.890,0.137,-0.867,0.301
11/26/2023 22:29:25.900,0.184,-0.844,0.301
11/26/2023 22:29:25.910,0.242,-0.836,0.297
11/26/2023 22:29:25.920,0.285,-0.867,0.305
11/26/2023 22:29:25.930,0.305,-0.902,0.313
11/26/2023 22:29:25.940,0.293,-0.914,0.305
11/26/2023 22:29:25.950,0.258,-0.902,0.273
11/26/2023 22:29:25.960,0.203,-0.863,0.234
11/26/2023 22:29:25.970,0.145,-0.82,0.191
11/26/2023 22:29:25.980,0.09,-0.785,0.168
11/26/2023 22:29:25.990,0.047,-0.77,0.16
11/26/2023 22:29:26.000,-0.016,-0.75,0.141
11/26/2023 22:29:26.010,-0.051,-0.723,0.117
11/26/2023 22:29:26.020,-0.098,-0.699,0.086
11/26/2023 22:29:26.030,-0.148,-0.695,0.07
11/26/2023 22:29:26.040,-0.184,-0.719,0.07
11/26/2023 22:29:26.050,-0.188,-0.766,0.086
11/26/2023 22:29:26.060,-0.18,-0.828,0.117
11/26/2023 22:29:26.070,-0.172,-0.883,0.145
11/26/2023 22:29:26.080,-0.156,-0.93,0.188
11/26/2023 22:29:26.090,-0.156,-0.969,0.23
11/26/2023 22:29:26.100,-0.164,-0.98,0.281
11/26/2023 22:29:26.110,-0.168,-0.973,0.309
11/26/2023 22:29:26.120,-0.18,-0.941,0.32
11/26/2023 22:29:26.130,-0.207,-0.914,0.309
11/26/2023 22:29:26.140,-0.227,-0.906,0.297
11/26/2023 22:29:26.150,-0.242,-0.922,0.305
11/26/2023 22:29:26.160,-0.25,-0.977,0.328
11/26/2023 22:29:26.170,-0.27,-1.043,0.352
11/26/2023 22:29:26.180,-0.289,-1.109,0.355
11/26/2023 22:29:26.190,-0.293,-1.16,0.355
11/26/2023 22:29:26.200,-0.297,-1.191,0.371
11/26/2023 22:29:26.210,-0.305,-1.219,0.383
11/26/2023 22:29:26.220,-0.285,-1.246,0.41
11/26/2023 22:29:26.230,-0.246,-1.273,0.445
11/26/2023 22:29:26.240,-0.215,-1.281,0.461
11/26/2023 22:29:26.250,-0.172,-1.246,0.43
11/26/2023 22:29:26.260,-0.082,-1.16,0.352
11/26/2023 22:29:26.270,-0.188,-1.176,0.316
11/26/2023 22:29:26.280,-0.18,-1.168,0.371
11/26/2023 22:29:26.290,-0.133,-1.121,0.379
11/26/2023 22:29:26.300,-0.063,-1.09,0.297
11/26/2023 22:29:26.310,0.016,-1.086,0.184
11/26/2023 22:29:26.320,0.105,-1.063,0.066
11/26/2023 22:29:26.330,0.199,-1.008,-0.031
11/26/2023 22:29:26.340,0.289,-0.969,-0.063
11/26/2023 22:29:26.350,0.332,-1.027,0
11/26/2023 22:29:26.360,0.348,-1.137,0.16
11/26/2023 22:29:26.370,0.34,-1.215,0.32
11/26/2023 22:29:26.380,0.305,-1.254,0.391
11/26/2023 22:29:26.390,0.266,-1.289,0.387
11/26/2023 22:29:26.400,0.219,-1.328,0.352
11/26/2023 22:29:26.410,0.172,-1.332,0.324
11/26/2023 22:29:26.420,0.164,-1.301,0.301
11/26/2023 22:29:26.430,0.16,-1.25,0.273
11/26/2023 22:29:26.440,0.125,-1.184,0.254
11/26/2023 22:29:26.450,0.082,-1.102,0.234
11/26/2023 22:29:26.460,0.012,-1.004,0.219
11/26/2023 22:29:26.470,-0.051,-0.895,0.223
11/26/2023 22:29:26.480,-0.102,-0.797,0.234
11/26/2023 22:29:26.490,-0.152,-0.719,0.242
11/26/2023 22:29:26.500,-0.219,-0.66,0.246
11/26/2023 22:29:26.510,-0.242,-0.605,0.246
11/26/2023 22:29:26.520,-0.227,-0.574,0.23
11/26/2023 22:29:26.530,-0.184,-0.574,0.219
11/26/2023 22:29:26.540,-0.148,-0.609,0.238
11/26/2023 22:29:26.550,-0.113,-0.668,0.289
11/26/2023 22:29:26.560,-0.051,-0.719,0.352
11/26/2023 22:29:26.570,0.004,-0.742,0.395
11/26/2023 22:29:26.580,0.031,-0.738,0.406
11/26/2023 22:29:26.590,0.043,-0.727,0.406
11/26/2023 22:29:26.600,0.039,-0.691,0.398
11/26/2023 22:29:26.610,0.012,-0.672,0.395
11/26/2023 22:29:26.620,-0.027,-0.672,0.398
11/26/2023 22:29:26.630,-0.082,-0.676,0.391
11/26/2023 22:29:26.640,-0.141,-0.672,0.363
11/26/2023 22:29:26.650,-0.164,-0.664,0.328
11/26/2023 22:29:26.660,-0.184,-0.66,0.313
11/26/2023 22:29:26.670,-0.203,-0.684,0.332
11/26/2023 22:29:26.680,-0.207,-0.754,0.371
11/26/2023 22:29:26.690,-0.172,-0.844,0.445
11/26/2023 22:29:26.700,-0.137,-0.93,0.512
11/26/2023 22:29:26.710,-0.102,-0.996,0.566
11/26/2023 22:29:26.720,-0.066,-1.055,0.59
11/26/2023 22:29:26.730,-0.047,-1.117,0.621
11/26/2023 22:29:26.740,-0.043,-1.238,0.656
11/26/2023 22:29:26.750,-0.063,-1.355,0.684
11/26/2023 22:29:26.760,-0.047,-1.418,0.648
11/26/2023 22:29:26.770,0.031,-1.414,0.555
11/26/2023 22:29:26.780,0.102,-1.406,0.426
11/26/2023 22:29:26.790,0.164,-1.484,0.371
11/26/2023 22:29:26.800,0.316,-1.586,0.34
11/26/2023 22:29:26.810,0.461,-1.57,0.254
11/26/2023 22:29:26.820,0.551,-1.574,0.215
11/26/2023 22:29:26.830,0.559,-1.691,0.238
11/26/2023 22:29:26.840,0.473,-1.73,0.203
11/26/2023 22:29:26.850,0.305,-1.539,0.055
11/26/2023 22:29:26.860,0.102,-1.184,-0.125
11/26/2023 22:29:26.870,-0.066,-0.824,-0.238
11/26/2023 22:29:26.880,-0.133,-0.59,-0.23
11/26/2023 22:29:26.890,-0.117,-0.5,-0.141
11/26/2023 22:29:26.900,-0.055,-0.508,-0.012
11/26/2023 22:29:26.910,0.016,-0.543,0.105
11/26/2023 22:29:26.920,0.078,-0.598,0.191
11/26/2023 22:29:26.930,0.152,-0.641,0.254
11/26/2023 22:29:26.940,0.242,-0.707,0.289
11/26/2023 22:29:26.950,0.332,-0.793,0.32
11/26/2023 22:29:26.960,0.391,-0.902,0.348
11/26/2023 22:29:26.970,0.41,-0.984,0.355
11/26/2023 22:29:26.980,0.383,-1.031,0.332
11/26/2023 22:29:26.990,0.309,-1.039,0.262
11/26/2023 22:29:27.000,0.203,-1,0.176
11/26/2023 22:29:27.010,0.117,-0.949,0.121
11/26/2023 22:29:27.020,0.031,-0.906,0.082
11/26/2023 22:29:27.030,-0.031,-0.871,0.074
11/26/2023 22:29:27.040,-0.082,-0.832,0.074
11/26/2023 22:29:27.050,-0.129,-0.789,0.066
11/26/2023 22:29:27.060,-0.164,-0.75,0.059
11/26/2023 22:29:27.070,-0.195,-0.715,0.066
11/26/2023 22:29:27.080,-0.219,-0.699,0.082
11/26/2023 22:29:27.090,-0.223,-0.715,0.113
11/26/2023 22:29:27.100,-0.211,-0.754,0.152
11/26/2023 22:29:27.110,-0.199,-0.809,0.199
11/26/2023 22:29:27.120,-0.184,-0.863,0.242
11/26/2023 22:29:27.130,-0.176,-0.902,0.281
11/26/2023 22:29:27.140,-0.168,-0.934,0.32
11/26/2023 22:29:27.150,-0.156,-0.941,0.348
11/26/2023 22:29:27.160,-0.148,-0.941,0.363
11/26/2023 22:29:27.170,-0.148,-0.938,0.375
11/26/2023 22:29:27.180,-0.145,-0.941,0.398
11/26/2023 22:29:27.190,-0.164,-0.953,0.414
11/26/2023 22:29:27.200,-0.18,-0.969,0.422
11/26/2023 22:29:27.210,-0.188,-0.988,0.422
11/26/2023 22:29:27.220,-0.199,-1.023,0.41
11/26/2023 22:29:27.230,-0.195,-1.063,0.387
11/26/2023 22:29:27.240,-0.176,-1.117,0.371
11/26/2023 22:29:27.250,-0.242,-1.195,0.371
11/26/2023 22:29:27.260,-0.266,-1.254,0.371
11/26/2023 22:29:27.270,-0.25,-1.273,0.336
11/26/2023 22:29:27.280,-0.23,-1.242,0.281
11/26/2023 22:29:27.290,-0.184,-1.195,0.23
11/26/2023 22:29:27.300,-0.121,-1.195,0.277
11/26/2023 22:29:27.310,-0.074,-1.246,0.32
11/26/2023 22:29:27.320,-0.008,-1.234,0.289
11/26/2023 22:29:27.330,0.086,-1.191,0.207
11/26/2023 22:29:27.340,0.133,-1.113,0.121
11/26/2023 22:29:27.350,0.18,-1.02,0.051
11/26/2023 22:29:27.360,0.219,-0.973,0.012
11/26/2023 22:29:27.370,0.234,-0.992,0.07
11/26/2023 22:29:27.380,0.266,-1.086,0.203
11/26/2023 22:29:27.390,0.246,-1.191,0.305
11/26/2023 22:29:27.400,0.215,-1.293,0.375
11/26/2023 22:29:27.410,0.266,-1.32,0.398
11/26/2023 22:29:27.420,0.234,-1.348,0.375
11/26/2023 22:29:27.430,0.176,-1.371,0.344
11/26/2023 22:29:27.440,0.184,-1.332,0.332
11/26/2023 22:29:27.450,0.141,-1.242,0.313
11/26/2023 22:29:27.460,0.098,-1.145,0.293
11/26/2023 22:29:27.470,0.039,-1.051,0.262
11/26/2023 22:29:27.480,-0.008,-0.957,0.234
11/26/2023 22:29:27.490,-0.059,-0.891,0.223
11/26/2023 22:29:27.500,-0.113,-0.828,0.211
11/26/2023 22:29:27.510,-0.133,-0.75,0.215
11/26/2023 22:29:27.520,-0.137,-0.672,0.227
11/26/2023 22:29:27.530,-0.148,-0.625,0.227
11/26/2023 22:29:27.540,-0.141,-0.605,0.219
11/26/2023 22:29:27.550,-0.133,-0.605,0.199
11/26/2023 22:29:27.560,-0.113,-0.605,0.188
11/26/2023 22:29:27.570,-0.102,-0.609,0.188
11/26/2023 22:29:27.580,-0.082,-0.629,0.207
11/26/2023 22:29:27.590,-0.051,-0.656,0.246
11/26/2023 22:29:27.600,-0.004,-0.684,0.285
11/26/2023 22:29:27.610,0.027,-0.699,0.324
11/26/2023 22:29:27.620,0.063,-0.707,0.359
11/26/2023 22:29:27.630,0.066,-0.695,0.371
11/26/2023 22:29:27.640,0.039,-0.684,0.363
