------------ Data File Created By ActiGraph GT3X+ ActiLife v6.13.4 Firmware v1.7.2 date format M/d/yyyy at 100 Hz  Filter Normal -----------
Serial Number: TAS1H50200818
Start Time 22:24:00
Start Date 11/26/2023
Epoch Period (hh:mm:ss) 00:00:00
Download Time 22:24:45
Download Date 11/26/2023
Current Memory Address: 0
Current Battery Voltage: 4.15     Mode = 12
--------------------------------------------------
Timestamp,Accelerometer X,Accelerometer Y,Accelerometer Z
11/26/2023 22:24:00.000,0.027,-0.504,0.301
11/26/2023 22:24:00.010,0.047,-0.473,0.34
11/26/2023 22:24:00.020,0.043,-0.406,0.391
11/26/2023 22:24:00.030,0.016,-0.34,0.445
11/26/2023 22:24:00.040,-0.047,-0.277,0.492
11/26/2023 22:24:00.050,-0.121,-0.262,0.52
11/26/2023 22:24:00.060,-0.16,-0.301,0.473
11/26/2023 22:24:00.070,-0.176,-0.363,0.328
11/26/2023 22:24:00.080,-0.219,-0.488,0.105
11/26/2023 22:24:00.090,-0.316,-0.707,-0.055
11/26/2023 22:24:00.100,-0.445,-1.004,-0.016
11/26/2023 22:24:00.110,-0.578,-1.359,0.18
11/26/2023 22:24:00.120,-0.684,-1.844,0.348
11/26/2023 22:24:00.130,-0.742,-2.59,0.25
11/26/2023 22:24:00.140,-0.711,-3.695,-0.125
11/26/2023 22:24:00.150,-0.523,-4.832,-0.316
11/26/2023 22:24:00.160,-0.367,-5.574,-0.133
11/26/2023 22:24:00.170,-0.211,-5.316,0.172
11/26/2023 22:24:00.180,0.016,-4.059,0.293
11/26/2023 22:24:00.190,0.398,-2.387,0.137
11/26/2023 22:24:00.200,0.586,-1.18,-0.203
11/26/2023 22:24:00.210,0.477,-0.637,-0.359
11/26/2023 22:24:00.220,0.188,-0.645,-0.258
11/26/2023 22:24:00.230,-0.055,-0.902,-0.145
11/26/2023 22:24:00.240,-0.125,-1.094,-0.156
11/26/2023 22:24:00.250,-0.059,-1.055,-0.203
11/26/2023 22:24:00.260,0.051,-0.879,-0.219
11/26/2023 22:24:00.270,0.133,-0.699,-0.188
11/26/2023 22:24:00.280,0.133,-0.547,-0.125
11/26/2023 22:24:00.290,0.094,-0.406,-0.086
11/26/2023 22:24:00.300,0.055,-0.258,-0.059
11/26/2023 22:24:00.310,0.031,-0.086,-0.027
11/26/2023 22:24:00.320,0.035,0.113,0.008
11/26/2023 22:24:00.330,0.016,0.313,0.008
11/26/2023 22:24:00.340,-0.012,0.504,-0.047
11/26/2023 22:24:00.350,-0.035,0.629,-0.148
11/26/2023 22:24:00.360,-0.02,0.672,-0.27
11/26/2023 22:24:00.370,0,0.625,-0.324
11/26/2023 22:24:00.380,0.012,0.508,-0.273
11/26/2023 22:24:00.390,0.008,0.344,-0.141
11/26/2023 22:24:00.400,0,0.184,-0.012
11/26/2023 22:24:00.410,0.008,0.051,0.094
11/26/2023 22:24:00.420,0.035,-0.051,0.156
11/26/2023 22:24:00.430,0.063,-0.129,0.176
11/26/2023 22:24:00.440,0.035,-0.195,0.172
11/26/2023 22:24:00.450,-0.043,-0.25,0.137
11/26/2023 22:24:00.460,-0.105,-0.301,0.117
11/26/2023 22:24:00.470,-0.133,-0.332,0.109
11/26/2023 22:24:00.480,-0.164,-0.348,0.09
11/26/2023 22:24:00.490,-0.191,-0.332,0.051
11/26/2023 22:24:00.500,-0.242,-0.277,-0.023
11/26/2023 22:24:00.510,-0.266,-0.223,-0.094
11/26/2023 22:24:00.520,-0.234,-0.254,-0.012
11/26/2023 22:24:00.530,-0.156,-0.371,0.164
11/26/2023 22:24:00.540,-0.098,-0.48,0.313
11/26/2023 22:24:00.550,-0.043,-0.574,0.402
11/26/2023 22:24:00.560,0.148,-0.715,0.547
11/26/2023 22:24:00.570,0.457,-0.926,0.297
11/26/2023 22:24:00.580,0.633,-2.324,-0.914
11/26/2023 22:24:00.590,0.336,-6.082,-2.734
11/26/2023 22:24:00.600,-0.609,-6.91,-2.266
11/26/2023 22:24:00.610,-1.125,-8,-2.266
11/26/2023 22:24:00.620,-0.379,-7.016,-1.688
11/26/2023 22:24:00.630,0.523,-3.07,-1.262
11/26/2023 22:24:00.640,1.133,-0.051,-1.551
11/26/2023 22:24:00.650,1.285,1.395,-1.895
11/26/2023 22:24:00.660,0.887,1.398,-1.328
11/26/2023 22:24:00.670,-0.023,0.344,-0.098
11/26/2023 22:24:00.680,-0.805,-1.023,0.566
11/26/2023 22:24:00.690,-0.891,-1.539,0.445
11/26/2023 22:24:00.700,-0.535,-1.176,0.266
11/26/2023 22:24:00.710,-0.137,-0.379,0.152
11/26/2023 22:24:00.720,0.121,0.426,-0.059
11/26/2023 22:24:00.730,0.27,0.977,-0.352
11/26/2023 22:24:00.740,0.27,1.152,-0.59
11/26/2023 22:24:00.750,0.184,1.082,-0.742
11/26/2023 22:24:00.760,0.07,0.832,-0.82
11/26/2023 22:24:00.770,0.027,0.469,-0.688
11/26/2023 22:24:00.780,0.102,0.137,-0.32
11/26/2023 22:24:00.790,0.219,-0.066,0.055
11/26/2023 22:24:00.800,0.227,-0.141,0.242
11/26/2023 22:24:00.810,0.113,-0.145,0.273
11/26/2023 22:24:00.820,-0.043,-0.125,0.266
11/26/2023 22:24:00.830,-0.16,-0.133,0.266
11/26/2023 22:24:00.840,-0.199,-0.168,0.258
11/26/2023 22:24:00.850,-0.18,-0.211,0.168
11/26/2023 22:24:00.860,-0.113,-0.215,0.059
11/26/2023 22:24:00.870,-0.035,-0.176,-0.008
11/26/2023 22:24:00.880,0.02,-0.102,-0.031
11/26/2023 22:24:00.890,0.027,-0.023,-0.035
11/26/2023 22:24:00.900,-0.023,0.023,-0.02
11/26/2023 22:24:00.910,-0.109,0.02,0.023
11/26/2023 22:24:00.920,-0.195,-0.113,0.137
11/26/2023 22:24:00.930,-0.215,-0.352,0.203
11/26/2023 22:24:00.940,-0.191,-0.641,0.258
11/26/2023 22:24:00.950,-0.113,-0.941,0.512
11/26/2023 22:24:00.960,0,-1.23,0.438
11/26/2023 22:24:00.970,-0.059,-1.996,-0.547
11/26/2023 22:24:00.980,-0.645,-5.293,-1.934
11/26/2023 22:24:00.990,-0.902,-7.238,-1.914
11/26/2023 22:24:01.000,-0.965,-8,-2.008
11/26/2023 22:24:01.010,-0.133,-7.59,-1.047
11/26/2023 22:24:01.020,0.148,-3.832,-0.777
11/26/2023 22:24:01.030,0.41,-0.707,-1.152
11/26/2023 22:24:01.040,0.887,0.934,-1.543
11/26/2023 22:24:01.050,0.957,1.133,-1.285
11/26/2023 22:24:01.060,0.41,0.539,-0.293
11/26/2023 22:24:01.070,-0.352,-0.488,0.496
11/26/2023 22:24:01.080,-0.734,-1.23,0.512
11/26/2023 22:24:01.090,-0.723,-1.316,0.246
11/26/2023 22:24:01.100,-0.5,-0.91,0.074
11/26/2023 22:24:01.110,-0.191,-0.293,-0.043
11/26/2023 22:24:01.120,0.063,0.238,-0.168
11/26/2023 22:24:01.130,0.172,0.559,-0.289
11/26/2023 22:24:01.140,0.133,0.699,-0.379
11/26/2023 22:24:01.150,0.027,0.734,-0.418
11/26/2023 22:24:01.160,-0.039,0.707,-0.387
11/26/2023 22:24:01.170,0.02,0.625,-0.285
11/26/2023 22:24:01.180,0.121,0.492,-0.137
11/26/2023 22:24:01.190,0.184,0.336,0.008
11/26/2023 22:24:01.200,0.164,0.203,0.078
11/26/2023 22:24:01.210,0.098,0.09,0.094
11/26/2023 22:24:01.220,0.051,-0.012,0.102
11/26/2023 22:24:01.230,0.039,-0.094,0.109
11/26/2023 22:24:01.240,0.063,-0.16,0.137
11/26/2023 22:24:01.250,0.074,-0.215,0.141
11/26/2023 22:24:01.260,0.055,-0.262,0.117
11/26/2023 22:24:01.270,0.027,-0.273,0.07
11/26/2023 22:24:01.280,0.008,-0.277,0.074
11/26/2023 22:24:01.290,0,-0.258,0.078
11/26/2023 22:24:01.300,-0.008,-0.238,0.027
11/26/2023 22:24:01.310,-0.023,-0.301,-0.016
11/26/2023 22:24:01.320,-0.031,-0.441,-0.035
11/26/2023 22:24:01.330,-0.027,-0.617,-0.023
11/26/2023 22:24:01.340,0.027,-0.793,0.223
11/26/2023 22:24:01.350,0.141,-0.996,0.625
11/26/2023 22:24:01.360,0.273,-1.219,0.449
11/26/2023 22:24:01.370,0.215,-1.969,-0.328
11/26/2023 22:24:01.380,-0.711,-5.152,-1.977
11/26/2023 22:24:01.390,-1.922,-7.883,-2.973
11/26/2023 22:24:01.400,-1.344,-8,-2.086
11/26/2023 22:24:01.410,-0.164,-7.715,-0.738
11/26/2023 22:24:01.420,0.383,-3.887,-0.23
11/26/2023 22:24:01.430,0.359,-0.555,-0.98
11/26/2023 22:24:01.440,0.582,0.867,-1.934
11/26/2023 22:24:01.450,0.938,0.977,-1.859
11/26/2023 22:24:01.460,0.895,0.402,-0.711
11/26/2023 22:24:01.470,0.324,-0.609,0.438
11/26/2023 22:24:01.480,-0.238,-1.414,0.703
11/26/2023 22:24:01.490,-0.469,-1.5,0.332
11/26/2023 22:24:01.500,-0.516,-1.109,-0.059
11/26/2023 22:24:01.510,-0.398,-0.48,-0.246
11/26/2023 22:24:01.520,-0.16,0.129,-0.313
11/26/2023 22:24:01.530,0.09,0.5,-0.316
11/26/2023 22:24:01.540,0.227,0.656,-0.328
11/26/2023 22:24:01.550,0.176,0.688,-0.359
11/26/2023 22:24:01.560,0.027,0.656,-0.383
11/26/2023 22:24:01.570,-0.063,0.613,-0.344
11/26/2023 22:24:01.580,-0.004,0.563,-0.262
11/26/2023 22:24:01.590,0.141,0.484,-0.156
11/26/2023 22:24:01.600,0.25,0.387,-0.047
11/26/2023 22:24:01.610,0.25,0.266,0.031
11/26/2023 22:24:01.620,0.168,0.121,0.082
11/26/2023 22:24:01.630,0.063,-0.027,0.121
11/26/2023 22:24:01.640,-0.004,-0.156,0.172
11/26/2023 22:24:01.650,-0.051,-0.234,0.199
11/26/2023 22:24:01.660,-0.078,-0.254,0.207
11/26/2023 22:24:01.670,-0.102,-0.242,0.238
11/26/2023 22:24:01.680,-0.113,-0.223,0.254
11/26/2023 22:24:01.690,-0.129,-0.219,0.199
11/26/2023 22:24:01.700,-0.152,-0.273,0.113
11/26/2023 22:24:01.710,-0.141,-0.41,0.012
11/26/2023 22:24:01.720,-0.051,-0.617,-0.043
11/26/2023 22:24:01.730,0.113,-0.859,0.152
11/26/2023 22:24:01.740,0.27,-1.102,0.5
11/26/2023 22:24:01.750,0.398,-1.406,0.223
11/26/2023 22:24:01.760,0.199,-2.973,-0.574
11/26/2023 22:24:01.770,-0.992,-6.77,-2.109
11/26/2023 22:24:01.780,-1.273,-8,-2.313
11/26/2023 22:24:01.790,-0.422,-8,-1.273
11/26/2023 22:24:01.800,0.141,-5.941,-0.219
11/26/2023 22:24:01.810,0.41,-2.359,-0.551
11/26/2023 22:24:01.820,0.41,-0.012,-1.344
11/26/2023 22:24:01.830,0.418,0.719,-1.625
11/26/2023 22:24:01.840,0.367,0.598,-0.941
11/26/2023 22:24:01.850,0.094,-0.102,0.02
11/26/2023 22:24:01.860,-0.223,-0.816,0.422
11/26/2023 22:24:01.870,-0.375,-1,0.305
11/26/2023 22:24:01.880,-0.402,-0.711,0.141
11/26/2023 22:24:01.890,-0.301,-0.203,0.051
11/26/2023 22:24:01.900,-0.129,0.285,-0.051
11/26/2023 22:24:01.910,-0.004,0.598,-0.184
11/26/2023 22:24:01.920,0.047,0.762,-0.348
11/26/2023 22:24:01.930,0.043,0.785,-0.512
11/26/2023 22:24:01.940,0.07,0.688,-0.594
11/26/2023 22:24:01.950,0.156,0.52,-0.543
11/26/2023 22:24:01.960,0.258,0.32,-0.391
11/26/2023 22:24:01.970,0.328,0.156,-0.18
11/26/2023 22:24:01.980,0.34,0.027,0
11/26/2023 22:24:01.990,0.309,-0.031,0.105
11/26/2023 22:24:02.000,0.27,-0.043,0.164
11/26/2023 22:24:02.010,0.266,-0.055,0.207
11/26/2023 22:24:02.020,0.266,-0.063,0.234
11/26/2023 22:24:02.030,0.246,-0.094,0.242
11/26/2023 22:24:02.040,0.176,-0.137,0.227
11/26/2023 22:24:02.050,0.055,-0.18,0.219
11/26/2023 22:24:02.060,-0.082,-0.18,0.211
11/26/2023 22:24:02.070,-0.207,-0.156,0.113
11/26/2023 22:24:02.080,-0.285,-0.176,-0.063
11/26/2023 22:24:02.090,-0.297,-0.293,-0.234
11/26/2023 22:24:02.100,-0.238,-0.492,-0.258
11/26/2023 22:24:02.110,-0.148,-0.742,0.039
11/26/2023 22:24:02.120,-0.023,-0.988,0.578
11/26/2023 22:24:02.130,0.094,-1.223,0.746
11/26/2023 22:24:02.140,0.168,-1.73,-0.012
11/26/2023 22:24:02.150,-0.219,-4.199,-1.289
11/26/2023 22:24:02.160,-1.207,-7.473,-2.027
11/26/2023 22:24:02.170,-1.141,-8,-1.836
11/26/2023 22:24:02.180,-0.09,-7.793,-1.074
11/26/2023 22:24:02.190,0.551,-4.719,0.043
11/26/2023 22:24:02.200,0.578,-1.348,-0.48
11/26/2023 22:24:02.210,0.406,0.504,-1.441
11/26/2023 22:24:02.220,0.371,0.875,-1.609
11/26/2023 22:24:02.230,0.16,0.453,-0.941
11/26/2023 22:24:02.240,-0.363,-0.43,-0.117
11/26/2023 22:24:02.250,-0.828,-1.195,0.293
11/26/2023 22:24:02.260,-0.895,-1.301,0.297
11/26/2023 22:24:02.270,-0.656,-0.93,0.148
11/26/2023 22:24:02.280,-0.305,-0.352,-0.051
11/26/2023 22:24:02.290,0.027,0.191,-0.23
11/26/2023 22:24:02.300,0.238,0.52,-0.324
11/26/2023 22:24:02.310,0.348,0.699,-0.352
11/26/2023 22:24:02.320,0.348,0.766,-0.363
11/26/2023 22:24:02.330,0.285,0.715,-0.336
11/26/2023 22:24:02.340,0.223,0.582,-0.262
11/26/2023 22:24:02.350,0.207,0.402,-0.137
11/26/2023 22:24:02.360,0.199,0.238,-0.035
11/26/2023 22:24:02.370,0.172,0.113,0.012
11/26/2023 22:24:02.380,0.121,0.055,0.027
11/26/2023 22:24:02.390,0.07,0.02,0.035
11/26/2023 22:24:02.400,0.059,-0.008,0.043
11/26/2023 22:24:02.410,0.059,-0.047,0.047
11/26/2023 22:24:02.420,0.047,-0.074,0.043
11/26/2023 22:24:02.430,0.035,-0.098,0.027
11/26/2023 22:24:02.440,0.023,-0.125,0.027
11/26/2023 22:24:02.450,0.016,-0.156,0.063
11/26/2023 22:24:02.460,-0.02,-0.172,0.055
11/26/2023 22:24:02.470,-0.055,-0.223,-0.031
11/26/2023 22:24:02.480,-0.102,-0.336,-0.09
11/26/2023 22:24:02.490,-0.113,-0.512,-0.008
11/26/2023 22:24:02.500,-0.094,-0.734,0.254
11/26/2023 22:24:02.510,-0.031,-0.98,0.605
11/26/2023 22:24:02.520,0.031,-1.207,0.758
11/26/2023 22:24:02.530,0.008,-1.641,0.289
11/26/2023 22:24:02.540,-0.402,-3.695,-0.797
11/26/2023 22:24:02.550,-1.215,-7.137,-2.051
11/26/2023 22:24:02.560,-0.93,-8,-1.586
11/26/2023 22:24:02.570,-0.027,-8,-0.723
11/26/2023 22:24:02.580,0.453,-5.395,0.012
11/26/2023 22:24:02.590,0.508,-1.98,-0.516
11/26/2023 22:24:02.600,0.324,-0.016,-1.426
11/26/2023 22:24:02.610,0.34,0.52,-1.594
11/26/2023 22:24:02.620,0.203,0.219,-0.836
11/26/2023 22:24:02.630,-0.266,-0.605,-0.047
11/26/2023 22:24:02.640,-0.68,-1.25,0.242
11/26/2023 22:24:02.650,-0.738,-1.254,0.184
11/26/2023 22:24:02.660,-0.531,-0.801,0.059
11/26/2023 22:24:02.670,-0.207,-0.211,-0.086
11/26/2023 22:24:02.680,0.074,0.219,-0.223
11/26/2023 22:24:02.690,0.281,0.457,-0.281
11/26/2023 22:24:02.700,0.395,0.559,-0.262
11/26/2023 22:24:02.710,0.434,0.57,-0.238
11/26/2023 22:24:02.720,0.418,0.547,-0.227
11/26/2023 22:24:02.730,0.375,0.508,-0.227
11/26/2023 22:24:02.740,0.332,0.449,-0.199
11/26/2023 22:24:02.750,0.273,0.363,-0.152
11/26/2023 22:24:02.760,0.195,0.293,-0.113
11/26/2023 22:24:02.770,0.133,0.246,-0.082
11/26/2023 22:24:02.780,0.086,0.203,-0.055
11/26/2023 22:24:02.790,0.063,0.156,-0.043
11/26/2023 22:24:02.800,0.039,0.086,-0.02
11/26/2023 22:24:02.810,0.008,-0.008,0.004
11/26/2023 22:24:02.820,-0.012,-0.094,0.039
11/26/2023 22:24:02.830,-0.012,-0.168,0.094
11/26/2023 22:24:02.840,0.004,-0.207,0.188
11/26/2023 22:24:02.850,0.035,-0.234,0.281
11/26/2023 22:24:02.860,0.066,-0.27,0.285
11/26/2023 22:24:02.870,0.051,-0.359,0.172
11/26/2023 22:24:02.880,0.004,-0.539,-0.063
11/26/2023 22:24:02.890,-0.031,-0.75,-0.156
11/26/2023 22:24:02.900,0.004,-0.945,0.184
11/26/2023 22:24:02.910,0.121,-1.102,0.828
11/26/2023 22:24:02.920,0.301,-1.309,0.699
11/26/2023 22:24:02.930,0.371,-2.215,-0.184
11/26/2023 22:24:02.940,-0.352,-5.762,-1.406
11/26/2023 22:24:02.950,-1.797,-8,-1.543
11/26/2023 22:24:02.960,-1.656,-8,-0.934
11/26/2023 22:24:02.970,-0.918,-6.234,-0.125
11/26/2023 22:24:02.980,0.031,-2.535,-0.234
11/26/2023 22:24:02.990,0.535,-0.238,-0.82
11/26/2023 22:24:03.000,0.652,0.512,-1.113
11/26/2023 22:24:03.010,0.367,0.242,-0.652
11/26/2023 22:24:03.020,-0.156,-0.559,-0.039
11/26/2023 22:24:03.030,-0.57,-1.281,0.266
11/26/2023 22:24:03.040,-0.676,-1.43,0.281
11/26/2023 22:24:03.050,-0.535,-1.098,0.145
11/26/2023 22:24:03.060,-0.289,-0.543,-0.035
11/26/2023 22:24:03.070,-0.063,-0.008,-0.16
11/26/2023 22:24:03.080,0.102,0.375,-0.223
11/26/2023 22:24:03.090,0.219,0.641,-0.262
11/26/2023 22:24:03.100,0.254,0.813,-0.301
11/26/2023 22:24:03.110,0.27,0.863,-0.402
11/26/2023 22:24:03.120,0.289,0.77,-0.457
11/26/2023 22:24:03.130,0.277,0.57,-0.43
11/26/2023 22:24:03.140,0.25,0.348,-0.328
11/26/2023 22:24:03.150,0.227,0.176,-0.191
11/26/2023 22:24:03.160,0.203,0.063,-0.078
11/26/2023 22:24:03.170,0.191,0.004,0.008
11/26/2023 22:24:03.180,0.18,-0.027,0.059
11/26/2023 22:24:03.190,0.145,-0.051,0.086
11/26/2023 22:24:03.200,0.09,-0.082,0.109
11/26/2023 22:24:03.210,0.023,-0.125,0.074
11/26/2023 22:24:03.220,-0.016,-0.133,0.082
11/26/2023 22:24:03.230,-0.035,-0.137,0.133
11/26/2023 22:24:03.240,-0.039,-0.117,0.164
11/26/2023 22:24:03.250,-0.063,-0.117,0.168
11/26/2023 22:24:03.260,-0.109,-0.176,0.168
11/26/2023 22:24:03.270,-0.145,-0.293,0.172
11/26/2023 22:24:03.280,-0.102,-0.461,0.207
11/26/2023 22:24:03.290,0.027,-0.691,0.375
11/26/2023 22:24:03.300,0.168,-0.918,0.543
11/26/2023 22:24:03.310,0.215,-1.172,0.633
11/26/2023 22:24:03.320,0.238,-1.602,0.344
11/26/2023 22:24:03.330,-0.355,-3.738,-0.414
11/26/2023 22:24:03.340,-1.543,-7.207,-1.957
11/26/2023 22:24:03.350,-1.41,-8,-1.555
11/26/2023 22:24:03.360,-0.785,-8,-0.355
11/26/2023 22:24:03.370,-0.047,-4.969,0.277
11/26/2023 22:24:03.380,0.598,-1.613,-0.391
11/26/2023 22:24:03.390,0.656,0.063,-1.023
11/26/2023 22:24:03.400,0.379,0.379,-0.93
11/26/2023 22:24:03.410,-0.078,-0.125,-0.152
11/26/2023 22:24:03.420,-0.457,-0.938,0.52
11/26/2023 22:24:03.430,-0.602,-1.398,0.578
11/26/2023 22:24:03.440,-0.559,-1.238,0.305
11/26/2023 22:24:03.450,-0.422,-0.703,0.043
11/26/2023 22:24:03.460,-0.23,-0.129,-0.074
11/26/2023 22:24:03.470,-0.055,0.246,-0.109
11/26/2023 22:24:03.480,0.07,0.418,-0.16
11/26/2023 22:24:03.490,0.129,0.48,-0.238
11/26/2023 22:24:03.500,0.152,0.527,-0.316
11/26/2023 22:24:03.510,0.211,0.539,-0.375
11/26/2023 22:24:03.520,0.344,0.52,-0.43
11/26/2023 22:24:03.530,0.508,0.461,-0.406
11/26/2023 22:24:03.540,0.59,0.336,-0.359
11/26/2023 22:24:03.550,0.559,0.207,-0.289
11/26/2023 22:24:03.560,0.469,0.105,-0.172
11/26/2023 22:24:03.570,0.391,0.035,-0.039
11/26/2023 22:24:03.580,0.344,-0.012,0.086
11/26/2023 22:24:03.590,0.285,-0.047,0.141
11/26/2023 22:24:03.600,0.234,-0.063,0.148
11/26/2023 22:24:03.610,0.184,-0.078,0.141
11/26/2023 22:24:03.620,0.148,-0.098,0.137
11/26/2023 22:24:03.630,0.09,-0.121,0.141
11/26/2023 22:24:03.640,0.02,-0.129,0.129
11/26/2023 22:24:03.650,-0.051,-0.145,0.129
11/26/2023 22:24:03.660,-0.117,-0.199,0.125
11/26/2023 22:24:03.670,-0.172,-0.324,0.121
11/26/2023 22:24:03.680,-0.199,-0.461,0.074
11/26/2023 22:24:03.690,-0.195,-0.641,0.008
11/26/2023 22:24:03.700,-0.172,-0.922,0.223
11/26/2023 22:24:03.710,-0.133,-1.305,0.813
11/26/2023 22:24:03.720,-0.18,-1.738,0.703
11/26/2023 22:24:03.730,-0.742,-3.258,-0.254
11/26/2023 22:24:03.740,-1.891,-6.727,-1.695
11/26/2023 22:24:03.750,-1.977,-8,-1.371
11/26/2023 22:24:03.760,-1.121,-8,-0.199
11/26/2023 22:24:03.770,-0.184,-5.445,0.434
11/26/2023 22:24:03.780,0.559,-2.109,-0.047
11/26/2023 22:24:03.790,0.723,-0.203,-0.691
11/26/2023 22:24:03.800,0.48,0.285,-0.836
11/26/2023 22:24:03.810,0.141,0.004,-0.242
11/26/2023 22:24:03.820,-0.105,-0.582,0.422
11/26/2023 22:24:03.830,-0.141,-0.965,0.582
11/26/2023 22:24:03.840,-0.098,-0.918,0.313
11/26/2023 22:24:03.850,-0.094,-0.531,0.02
11/26/2023 22:24:03.860,-0.098,-0.09,-0.141
11/26/2023 22:24:03.870,-0.035,0.234,-0.199
11/26/2023 22:24:03.880,0.094,0.406,-0.25
11/26/2023 22:24:03.890,0.215,0.469,-0.246
11/26/2023 22:24:03.900,0.301,0.492,-0.23
11/26/2023 22:24:03.910,0.324,0.48,-0.266
11/26/2023 22:24:03.920,0.297,0.449,-0.355
11/26/2023 22:24:03.930,0.273,0.379,-0.438
11/26/2023 22:24:03.940,0.273,0.242,-0.414
11/26/2023 22:24:03.950,0.277,0.117,-0.293
11/26/2023 22:24:03.960,0.242,0.031,-0.117
11/26/2023 22:24:03.970,0.18,-0.004,0.035
11/26/2023 22:24:03.980,0.113,-0.02,0.141
11/26/2023 22:24:03.990,0.09,-0.043,0.176
11/26/2023 22:24:04.000,0.082,-0.055,0.18
11/26/2023 22:24:04.010,0.074,-0.09,0.168
11/26/2023 22:24:04.020,0.02,-0.121,0.156
11/26/2023 22:24:04.030,-0.043,-0.121,0.148
11/26/2023 22:24:04.040,-0.082,-0.098,0.117
11/26/2023 22:24:04.050,-0.102,-0.07,0.078
11/26/2023 22:24:04.060,-0.121,-0.094,0.047
11/26/2023 22:24:04.070,-0.113,-0.207,0.023
11/26/2023 22:24:04.080,-0.09,-0.395,0.078
11/26/2023 22:24:04.090,-0.07,-0.66,0.309
11/26/2023 22:24:04.100,-0.066,-1.039,0.902
11/26/2023 22:24:04.110,-0.086,-1.375,1.098
11/26/2023 22:24:04.120,-0.309,-1.824,0.309
11/26/2023 22:24:04.130,-1.047,-3.949,-0.895
11/26/2023 22:24:04.140,-2.004,-7.254,-1.656
11/26/2023 22:24:04.150,-1.723,-8,-0.945
11/26/2023 22:24:04.160,-0.777,-7.801,0.27
11/26/2023 22:24:04.170,0.129,-4.258,0.598
11/26/2023 22:24:04.180,0.492,-1.344,-0.234
11/26/2023 22:24:04.190,0.582,0.031,-0.883
11/26/2023 22:24:04.200,0.477,0.316,-0.793
11/26/2023 22:24:04.210,0.105,-0.133,-0.043
11/26/2023 22:24:04.220,-0.258,-0.863,0.559
11/26/2023 22:24:04.230,-0.438,-1.293,0.602
11/26/2023 22:24:04.240,-0.461,-1.223,0.316
11/26/2023 22:24:04.250,-0.395,-0.855,0.016
11/26/2023 22:24:04.260,-0.27,-0.441,-0.145
11/26/2023 22:24:04.270,-0.098,-0.121,-0.188
11/26/2023 22:24:04.280,0.047,0.047,-0.148
11/26/2023 22:24:04.290,0.145,0.152,-0.137
11/26/2023 22:24:04.300,0.168,0.25,-0.133
11/26/2023 22:24:04.310,0.141,0.313,-0.152
11/26/2023 22:24:04.320,0.152,0.359,-0.219
11/26/2023 22:24:04.330,0.227,0.387,-0.277
11/26/2023 22:24:04.340,0.324,0.355,-0.309
11/26/2023 22:24:04.350,0.387,0.27,-0.273
11/26/2023 22:24:04.360,0.359,0.172,-0.223
11/26/2023 22:24:04.370,0.273,0.094,-0.168
11/26/2023 22:24:04.380,0.199,0.051,-0.105
11/26/2023 22:24:04.390,0.176,0.039,-0.027
11/26/2023 22:24:04.400,0.195,0.027,0.039
11/26/2023 22:24:04.410,0.215,0.012,0.074
11/26/2023 22:24:04.420,0.203,-0.008,0.098
11/26/2023 22:24:04.430,0.16,-0.035,0.141
11/26/2023 22:24:04.440,0.102,-0.078,0.203
11/26/2023 22:24:04.450,0.035,-0.129,0.254
11/26/2023 22:24:04.460,-0.02,-0.199,0.301
11/26/2023 22:24:04.470,-0.059,-0.324,0.289
11/26/2023 22:24:04.480,-0.066,-0.457,0.195
11/26/2023 22:24:04.490,-0.055,-0.598,0.082
11/26/2023 22:24:04.500,-0.098,-0.777,0.055
11/26/2023 22:24:04.510,-0.207,-1.074,0.492
11/26/2023 22:24:04.520,-0.383,-1.59,0.559
11/26/2023 22:24:04.530,-0.875,-3.23,0.027
11/26/2023 22:24:04.540,-1.738,-6.516,-1.07
11/26/2023 22:24:04.550,-1.844,-8,-0.895
11/26/2023 22:24:04.560,-1.281,-7.75,0.102
11/26/2023 22:24:04.570,-0.281,-4.695,0.711
11/26/2023 22:24:04.580,0.582,-1.625,0.16
11/26/2023 22:24:04.590,0.953,-0.145,-0.43
11/26/2023 22:24:04.600,0.953,0.129,-0.441
11/26/2023 22:24:04.610,0.625,-0.324,0.078
11/26/2023 22:24:04.620,0.227,-1.078,0.523
11/26/2023 22:24:04.630,-0.008,-1.512,0.594
11/26/2023 22:24:04.640,-0.109,-1.477,0.379
11/26/2023 22:24:04.650,-0.164,-1.152,0.074
11/26/2023 22:24:04.660,-0.211,-0.797,-0.188
11/26/2023 22:24:04.670,-0.195,-0.531,-0.281
11/26/2023 22:24:04.680,-0.09,-0.355,-0.234
11/26/2023 22:24:04.690,0.016,-0.223,-0.125
11/26/2023 22:24:04.700,0.055,-0.066,-0.078
11/26/2023 22:24:04.710,0.035,0.09,-0.113
11/26/2023 22:24:04.720,0.02,0.223,-0.176
11/26/2023 22:24:04.730,0.09,0.297,-0.211
11/26/2023 22:24:04.740,0.207,0.32,-0.195
11/26/2023 22:24:04.750,0.266,0.316,-0.176
11/26/2023 22:24:04.760,0.242,0.324,-0.195
11/26/2023 22:24:04.770,0.164,0.355,-0.215
11/26/2023 22:24:04.780,0.117,0.391,-0.207
11/26/2023 22:24:04.790,0.105,0.402,-0.164
11/26/2023 22:24:04.800,0.109,0.348,-0.074
11/26/2023 22:24:04.810,0.117,0.238,0.035
11/26/2023 22:24:04.820,0.094,0.102,0.137
11/26/2023 22:24:04.830,0.059,-0.031,0.168
11/26/2023 22:24:04.840,0.035,-0.117,0.16
11/26/2023 22:24:04.850,-0.004,-0.172,0.168
11/26/2023 22:24:04.860,-0.063,-0.227,0.164
11/26/2023 22:24:04.870,-0.137,-0.309,0.152
11/26/2023 22:24:04.880,-0.148,-0.41,0.148
11/26/2023 22:24:04.890,-0.113,-0.543,0.125
11/26/2023 22:24:04.900,-0.07,-0.75,0.203
11/26/2023 22:24:04.910,-0.027,-1.082,0.633
11/26/2023 22:24:04.920,0.063,-1.527,0.875
11/26/2023 22:24:04.930,-0.008,-2.527,0.402
11/26/2023 22:24:04.940,-0.926,-5.703,-0.828
11/26/2023 22:24:04.950,-1.621,-8,-0.984
11/26/2023 22:24:04.960,-1.16,-8,-0.461
11/26/2023 22:24:04.970,-0.285,-6.355,0.527
11/26/2023 22:24:04.980,0.641,-2.793,0.352
11/26/2023 22:24:04.990,0.898,-0.438,-0.492
11/26/2023 22:24:05.000,0.57,0.422,-0.965
11/26/2023 22:24:05.010,-0.012,0.223,-0.469
11/26/2023 22:24:05.020,-0.563,-0.574,0.223
11/26/2023 22:24:05.030,-0.746,-1.195,0.508
11/26/2023 22:24:05.040,-0.668,-1.246,0.387
11/26/2023 22:24:05.050,-0.512,-0.898,0.082
11/26/2023 22:24:05.060,-0.328,-0.441,-0.199
11/26/2023 22:24:05.070,-0.125,-0.113,-0.285
11/26/2023 22:24:05.080,0.133,0.098,-0.234
11/26/2023 22:24:05.090,0.344,0.254,-0.168
11/26/2023 22:24:05.100,0.453,0.363,-0.16
11/26/2023 22:24:05.110,0.5,0.426,-0.184
11/26/2023 22:24:05.120,0.496,0.449,-0.242
11/26/2023 22:24:05.130,0.488,0.422,-0.316
11/26/2023 22:24:05.140,0.484,0.348,-0.32
11/26/2023 22:24:05.150,0.438,0.258,-0.273
11/26/2023 22:24:05.160,0.34,0.184,-0.227
11/26/2023 22:24:05.170,0.23,0.137,-0.18
11/26/2023 22:24:05.180,0.156,0.109,-0.129
11/26/2023 22:24:05.190,0.141,0.09,-0.07
11/26/2023 22:24:05.200,0.152,0.063,-0.039
11/26/2023 22:24:05.210,0.137,0.035,-0.039
11/26/2023 22:24:05.220,0.113,0.004,-0.07
11/26/2023 22:24:05.230,0.102,-0.016,-0.105
11/26/2023 22:24:05.240,0.09,-0.023,-0.113
11/26/2023 22:24:05.250,0.078,-0.051,-0.129
11/26/2023 22:24:05.260,0.078,-0.145,-0.086
11/26/2023 22:24:05.270,0.121,-0.309,0.07
11/26/2023 22:24:05.280,0.152,-0.504,0.27
11/26/2023 22:24:05.290,0.125,-0.723,0.477
11/26/2023 22:24:05.300,0.051,-0.945,0.797
11/26/2023 22:24:05.310,-0.035,-1.172,1.211
11/26/2023 22:24:05.320,-0.125,-1.324,1.203
11/26/2023 22:24:05.330,-0.691,-1.816,-0.039
11/26/2023 22:24:05.340,-2.316,-4.625,-1.258
11/26/2023 22:24:05.350,-2.969,-7.645,-0.855
11/26/2023 22:24:05.360,-1.813,-8,-0.77
11/26/2023 22:24:05.370,-0.246,-7.129,0.383
11/26/2023 22:24:05.380,0.582,-3.598,0.641
11/26/2023 22:24:05.390,0.645,-0.984,-0.211
11/26/2023 22:24:05.400,0.496,0.023,-0.91
11/26/2023 22:24:05.410,0.434,0.082,-0.676
11/26/2023 22:24:05.420,0.336,-0.434,0.07
11/26/2023 22:24:05.430,0.203,-1.074,0.531
11/26/2023 22:24:05.440,0.109,-1.355,0.492
11/26/2023 22:24:05.450,0.008,-1.281,0.18
11/26/2023 22:24:05.460,-0.082,-0.996,-0.129
11/26/2023 22:24:05.470,-0.109,-0.668,-0.273
11/26/2023 22:24:05.480,-0.051,-0.391,-0.301
11/26/2023 22:24:05.490,0.012,-0.219,-0.266
11/26/2023 22:24:05.500,0.02,-0.066,-0.25
11/26/2023 22:24:05.510,-0.012,0.074,-0.246
11/26/2023 22:24:05.520,-0.043,0.211,-0.23
11/26/2023 22:24:05.530,0,0.332,-0.188
11/26/2023 22:24:05.540,0.129,0.461,-0.125
11/26/2023 22:24:05.550,0.242,0.578,-0.113
11/26/2023 22:24:05.560,0.281,0.676,-0.172
11/26/2023 22:24:05.570,0.277,0.699,-0.25
11/26/2023 22:24:05.580,0.301,0.648,-0.273
11/26/2023 22:24:05.590,0.352,0.531,-0.211
11/26/2023 22:24:05.600,0.367,0.379,-0.129
11/26/2023 22:24:05.610,0.359,0.215,-0.066
11/26/2023 22:24:05.620,0.344,0.059,-0.008
11/26/2023 22:24:05.630,0.316,-0.063,0.023
11/26/2023 22:24:05.640,0.293,-0.148,0.016
11/26/2023 22:24:05.650,0.25,-0.223,0.039
11/26/2023 22:24:05.660,0.16,-0.289,0.086
11/26/2023 22:24:05.670,0.023,-0.391,0.164
11/26/2023 22:24:05.680,-0.117,-0.57,0.285
11/26/2023 22:24:05.690,-0.188,-0.781,0.395
11/26/2023 22:24:05.700,-0.223,-1.004,0.586
11/26/2023 22:24:05.710,-0.313,-1.137,0.867
11/26/2023 22:24:05.720,-0.504,-1.145,0.77
11/26/2023 22:24:05.730,-0.988,-1.637,-0.016
11/26/2023 22:24:05.740,-2.121,-4.91,-0.961
11/26/2023 22:24:05.750,-2.277,-7.813,-1.129
11/26/2023 22:24:05.760,-1.063,-8,-0.684
11/26/2023 22:24:05.770,0.148,-7.633,0.324
11/26/2023 22:24:05.780,0.816,-3.965,0.449
11/26/2023 22:24:05.790,1.027,-0.938,-0.18
11/26/2023 22:24:05.800,0.988,0.391,-0.848
11/26/2023 22:24:05.810,0.844,0.621,-0.836
11/26/2023 22:24:05.820,0.426,0.207,-0.379
11/26/2023 22:24:05.830,-0.156,-0.508,-0.082
11/26/2023 22:24:05.840,-0.602,-0.961,-0.008
11/26/2023 22:24:05.850,-0.789,-1.035,-0.098
11/26/2023 22:24:05.860,-0.699,-0.832,-0.254
11/26/2023 22:24:05.870,-0.473,-0.52,-0.348
11/26/2023 22:24:05.880,-0.207,-0.184,-0.371
11/26/2023 22:24:05.890,0.016,0.102,-0.332
11/26/2023 22:24:05.900,0.148,0.32,-0.254
11/26/2023 22:24:05.910,0.223,0.492,-0.188
11/26/2023 22:24:05.920,0.285,0.586,-0.18
11/26/2023 22:24:05.930,0.375,0.574,-0.172
11/26/2023 22:24:05.940,0.469,0.477,-0.148
11/26/2023 22:24:05.950,0.504,0.332,-0.113
11/26/2023 22:24:05.960,0.477,0.211,-0.082
11/26/2023 22:24:05.970,0.43,0.145,-0.059
11/26/2023 22:24:05.980,0.387,0.121,-0.043
11/26/2023 22:24:05.990,0.355,0.113,-0.039
11/26/2023 22:24:06.000,0.297,0.098,-0.051
11/26/2023 22:24:06.010,0.227,0.059,-0.031
11/26/2023 22:24:06.020,0.141,0.012,0.012
11/26/2023 22:24:06.030,0.102,-0.023,0.074
11/26/2023 22:24:06.040,0.105,-0.059,0.137
11/26/2023 22:24:06.050,0.102,-0.07,0.168
11/26/2023 22:24:06.060,0.039,-0.066,0.121
11/26/2023 22:24:06.070,-0.035,-0.047,-0.016
11/26/2023 22:24:06.080,-0.086,-0.125,-0.129
11/26/2023 22:24:06.090,-0.094,-0.324,-0.09
11/26/2023 22:24:06.100,-0.074,-0.594,0.098
11/26/2023 22:24:06.110,-0.102,-0.875,0.406
11/26/2023 22:24:06.120,-0.16,-1.152,0.855
11/26/2023 22:24:06.130,-0.172,-1.332,0.918
11/26/2023 22:24:06.140,-0.316,-1.715,-0.023
11/26/2023 22:24:06.150,-0.906,-4.195,-1.191
11/26/2023 22:24:06.160,-1.445,-7.453,-1.277
11/26/2023 22:24:06.170,-0.977,-8,-0.98
11/26/2023 22:24:06.180,-0.051,-7.484,0.043
11/26/2023 22:24:06.190,0.402,-4.152,0.32
11/26/2023 22:24:06.200,0.668,-1.441,-0.227
11/26/2023 22:24:06.210,0.875,-0.168,-0.719
11/26/2023 22:24:06.220,0.656,-0.082,-0.691
11/26/2023 22:24:06.230,0.117,-0.688,-0.105
11/26/2023 22:24:06.240,-0.293,-1.422,0.332
11/26/2023 22:24:06.250,-0.418,-1.699,0.398
11/26/2023 22:24:06.260,-0.41,-1.441,0.195
11/26/2023 22:24:06.270,-0.371,-0.934,-0.031
11/26/2023 22:24:06.280,-0.301,-0.43,-0.148
11/26/2023 22:24:06.290,-0.152,-0.012,-0.172
11/26/2023 22:24:06.300,0.004,0.266,-0.121
11/26/2023 22:24:06.310,0.148,0.461,-0.055
11/26/2023 22:24:06.320,0.219,0.547,-0.043
11/26/2023 22:24:06.330,0.227,0.582,-0.105
11/26/2023 22:24:06.340,0.238,0.59,-0.211
11/26/2023 22:24:06.350,0.277,0.582,-0.281
11/26/2023 22:24:06.360,0.316,0.563,-0.293
11/26/2023 22:24:06.370,0.301,0.492,-0.223
11/26/2023 22:24:06.380,0.238,0.375,-0.09
11/26/2023 22:24:06.390,0.176,0.246,0.074
11/26/2023 22:24:06.400,0.121,0.117,0.191
11/26/2023 22:24:06.410,0.059,0.012,0.203
11/26/2023 22:24:06.420,-0.027,-0.047,0.137
11/26/2023 22:24:06.430,-0.117,-0.066,0.047
11/26/2023 22:24:06.440,-0.176,-0.07,-0.02
11/26/2023 22:24:06.450,-0.176,-0.074,-0.035
11/26/2023 22:24:06.460,-0.156,-0.109,-0.016
11/26/2023 22:24:06.470,-0.148,-0.141,0.012
11/26/2023 22:24:06.480,-0.152,-0.168,0.004
11/26/2023 22:24:06.490,-0.164,-0.195,0.012
11/26/2023 22:24:06.500,-0.184,-0.246,0.02
11/26/2023 22:24:06.510,-0.172,-0.363,0.113
11/26/2023 22:24:06.520,-0.121,-0.547,0.293
11/26/2023 22:24:06.530,0.008,-0.773,0.563
11/26/2023 22:24:06.540,0.18,-0.988,0.859
11/26/2023 22:24:06.550,0.387,-1.129,0.98
11/26/2023 22:24:06.560,0.539,-1.316,0.367
11/26/2023 22:24:06.570,0.707,-3.027,-0.895
11/26/2023 22:24:06.580,0.59,-4.75,-1.078
11/26/2023 22:24:06.590,-0.625,-6.227,-1.086
11/26/2023 22:24:06.600,-0.801,-7.297,-1.145
11/26/2023 22:24:06.610,-0.258,-4.449,-0.5
11/26/2023 22:24:06.620,0.324,-1.336,-0.551
11/26/2023 22:24:06.630,0.852,0.664,-1.051
11/26/2023 22:24:06.640,0.777,0.992,-1.371
11/26/2023 22:24:06.650,0.105,0.438,-0.695
11/26/2023 22:24:06.660,-0.594,-0.629,0.223
11/26/2023 22:24:06.670,-0.75,-1.41,0.656
11/26/2023 22:24:06.680,-0.504,-1.48,0.641
11/26/2023 22:24:06.690,-0.164,-0.992,0.43
11/26/2023 22:24:06.700,0.078,-0.355,0.16
11/26/2023 22:24:06.710,0.141,0.105,-0.117
11/26/2023 22:24:06.720,0.125,0.434,-0.371
11/26/2023 22:24:06.730,0.145,0.676,-0.473
11/26/2023 22:24:06.740,0.23,0.816,-0.461
11/26/2023 22:24:06.750,0.359,0.852,-0.469
11/26/2023 22:24:06.760,0.441,0.781,-0.504
11/26/2023 22:24:06.770,0.41,0.59,-0.465
11/26/2023 22:24:06.780,0.309,0.367,-0.313
11/26/2023 22:24:06.790,0.246,0.195,-0.074
11/26/2023 22:24:06.800,0.246,0.082,0.125
11/26/2023 22:24:06.810,0.254,0.02,0.195
11/26/2023 22:24:06.820,0.23,-0.012,0.16
11/26/2023 22:24:06.830,0.172,-0.031,0.098
11/26/2023 22:24:06.840,0.109,-0.059,0.059
11/26/2023 22:24:06.850,0.09,-0.086,0.066
11/26/2023 22:24:06.860,0.086,-0.117,0.098
11/26/2023 22:24:06.870,0.074,-0.148,0.148
11/26/2023 22:24:06.880,0.035,-0.156,0.176
11/26/2023 22:24:06.890,-0.027,-0.125,0.156
11/26/2023 22:24:06.900,-0.109,-0.113,0.117
11/26/2023 22:24:06.910,-0.16,-0.195,0.082
11/26/2023 22:24:06.920,-0.156,-0.395,0.184
11/26/2023 22:24:06.930,-0.117,-0.633,0.414
11/26/2023 22:24:06.940,-0.078,-0.852,0.598
11/26/2023 22:24:06.950,-0.078,-1.035,0.629
11/26/2023 22:24:06.960,-0.043,-1.25,0.324
11/26/2023 22:24:06.970,-0.047,-2.223,-0.293
11/26/2023 22:24:06.980,-0.676,-5.813,-1.152
11/26/2023 22:24:06.990,-1.316,-8,-1.332
11/26/2023 22:24:07.000,-0.992,-8,-0.723
11/26/2023 22:24:07.010,-0.27,-6.531,0.234
11/26/2023 22:24:07.020,0.605,-2.734,0.191
11/26/2023 22:24:07.030,0.859,-0.285,-0.469
11/26/2023 22:24:07.040,0.59,0.406,-0.906
11/26/2023 22:24:07.050,0.141,0.133,-0.352
11/26/2023 22:24:07.060,-0.305,-0.688,0.43
11/26/2023 22:24:07.070,-0.543,-1.41,0.781
11/26/2023 22:24:07.080,-0.57,-1.613,0.637
11/26/2023 22:24:07.090,-0.402,-1.344,0.336
11/26/2023 22:24:07.100,-0.152,-0.852,0.051
11/26/2023 22:24:07.110,0.047,-0.391,-0.145
11/26/2023 22:24:07.120,0.145,-0.09,-0.219
11/26/2023 22:24:07.130,0.16,0.074,-0.219
11/26/2023 22:24:07.140,0.188,0.191,-0.199
11/26/2023 22:24:07.150,0.23,0.316,-0.184
11/26/2023 22:24:07.160,0.258,0.398,-0.176
11/26/2023 22:24:07.170,0.273,0.438,-0.219
11/26/2023 22:24:07.180,0.297,0.422,-0.266
11/26/2023 22:24:07.190,0.348,0.406,-0.289
11/26/2023 22:24:07.200,0.375,0.406,-0.301
11/26/2023 22:24:07.210,0.355,0.402,-0.316
11/26/2023 22:24:07.220,0.332,0.371,-0.289
11/26/2023 22:24:07.230,0.316,0.309,-0.207
11/26/2023 22:24:07.240,0.309,0.238,-0.102
11/26/2023 22:24:07.250,0.301,0.16,-0.008
11/26/2023 22:24:07.260,0.258,0.07,0.063
11/26/2023 22:24:07.270,0.191,-0.023,0.117
11/26/2023 22:24:07.280,0.121,-0.102,0.141
11/26/2023 22:24:07.290,0.066,-0.176,0.164
11/26/2023 22:24:07.300,-0.016,-0.246,0.176
11/26/2023 22:24:07.310,-0.129,-0.297,0.094
11/26/2023 22:24:07.320,-0.223,-0.309,0.031
11/26/2023 22:24:07.330,-0.277,-0.332,0.02
11/26/2023 22:24:07.340,-0.309,-0.422,0.02
11/26/2023 22:24:07.350,-0.281,-0.555,0.066
11/26/2023 22:24:07.360,-0.191,-0.695,0.23
11/26/2023 22:24:07.370,-0.059,-0.895,0.566
11/26/2023 22:24:07.380,0.129,-1.176,0.98
11/26/2023 22:24:07.390,0.34,-1.609,0.688
11/26/2023 22:24:07.400,0.32,-3.547,-0.594
11/26/2023 22:24:07.410,-0.566,-7.098,-1.078
11/26/2023 22:24:07.420,-1.289,-8,-1.082
11/26/2023 22:24:07.430,-0.898,-7.809,-0.617
11/26/2023 22:24:07.440,-0.242,-4.539,-0.063
11/26/2023 22:24:07.450,0.266,-1.633,-0.383
11/26/2023 22:24:07.460,0.645,0.004,-0.832
11/26/2023 22:24:07.470,0.559,0.254,-0.926
11/26/2023 22:24:07.480,0.094,-0.305,-0.27
11/26/2023 22:24:07.490,-0.352,-1.227,0.43
11/26/2023 22:24:07.500,-0.465,-1.734,0.688
11/26/2023 22:24:07.510,-0.344,-1.563,0.551
11/26/2023 22:24:07.520,-0.203,-1.031,0.285
11/26/2023 22:24:07.530,-0.078,-0.449,0.047
11/26/2023 22:24:07.540,0.035,-0.043,-0.074
11/26/2023 22:24:07.550,0.121,0.172,-0.141
11/26/2023 22:24:07.560,0.152,0.309,-0.207
11/26/2023 22:24:07.570,0.16,0.422,-0.273
11/26/2023 22:24:07.580,0.184,0.504,-0.301
11/26/2023 22:24:07.590,0.254,0.59,-0.34
11/26/2023 22:24:07.600,0.305,0.641,-0.398
11/26/2023 22:24:07.610,0.266,0.637,-0.48
11/26/2023 22:24:07.620,0.18,0.57,-0.492
11/26/2023 22:24:07.630,0.117,0.469,-0.363
11/26/2023 22:24:07.640,0.121,0.34,-0.133
11/26/2023 22:24:07.650,0.137,0.191,0.051
11/26/2023 22:24:07.660,0.125,0.055,0.148
11/26/2023 22:24:07.670,0.074,-0.047,0.176
11/26/2023 22:24:07.680,0.043,-0.121,0.156
11/26/2023 22:24:07.690,0.043,-0.16,0.148
11/26/2023 22:24:07.700,0.051,-0.191,0.141
11/26/2023 22:24:07.710,0.066,-0.203,0.102
11/26/2023 22:24:07.720,0.063,-0.227,0.121
11/26/2023 22:24:07.730,0.027,-0.238,0.152
11/26/2023 22:24:07.740,-0.043,-0.227,0.133
11/26/2023 22:24:07.750,-0.133,-0.234,0.055
11/26/2023 22:24:07.760,-0.152,-0.309,0.047
11/26/2023 22:24:07.770,-0.078,-0.457,0.207
11/26/2023 22:24:07.780,0.008,-0.648,0.48
11/26/2023 22:24:07.790,0.07,-0.891,0.906
11/26/2023 22:24:07.800,0.125,-1.156,1.328
11/26/2023 22:24:07.810,0.211,-1.473,0.867
11/26/2023 22:24:07.820,0,-2.961,-0.449
11/26/2023 22:24:07.830,-0.547,-6.07,-0.961
11/26/2023 22:24:07.840,-1.012,-7.605,-0.777
11/26/2023 22:24:07.850,-0.691,-8,-0.602
11/26/2023 22:24:07.860,0.027,-5.164,0.121
11/26/2023 22:24:07.870,0.547,-1.793,-0.121
11/26/2023 22:24:07.880,0.742,0.141,-0.852
11/26/2023 22:24:07.890,0.578,0.516,-1.133
11/26/2023 22:24:07.900,0.184,0.105,-0.555
11/26/2023 22:24:07.910,-0.215,-0.836,0.172
11/26/2023 22:24:07.920,-0.293,-1.496,0.5
11/26/2023 22:24:07.930,-0.168,-1.559,0.445
11/26/2023 22:24:07.940,-0.016,-1.207,0.168
11/26/2023 22:24:07.950,0.145,-0.707,-0.07
11/26/2023 22:24:07.960,0.285,-0.281,-0.141
11/26/2023 22:24:07.970,0.367,0.004,-0.086
11/26/2023 22:24:07.980,0.332,0.207,-0.066
11/26/2023 22:24:07.990,0.199,0.352,-0.109
11/26/2023 22:24:08.000,0.035,0.473,-0.18
11/26/2023 22:24:08.010,-0.043,0.551,-0.277
11/26/2023 22:24:08.020,-0.008,0.609,-0.355
11/26/2023 22:24:08.030,0.051,0.629,-0.352
11/26/2023 22:24:08.040,0.035,0.586,-0.328
11/26/2023 22:24:08.050,-0.035,0.508,-0.297
11/26/2023 22:24:08.060,-0.066,0.422,-0.223
11/26/2023 22:24:08.070,-0.051,0.328,-0.129
11/26/2023 22:24:08.080,-0.023,0.23,-0.07
11/26/2023 22:24:08.090,0.004,0.109,-0.035
11/26/2023 22:24:08.100,0.016,-0.035,0.012
11/26/2023 22:24:08.110,0.039,-0.168,0.047
11/26/2023 22:24:08.120,0.078,-0.254,0.055
11/26/2023 22:24:08.130,0.098,-0.293,0.063
11/26/2023 22:24:08.140,0.094,-0.285,0.07
11/26/2023 22:24:08.150,0.082,-0.254,0.098
11/26/2023 22:24:08.160,0.047,-0.254,0.102
11/26/2023 22:24:08.170,0,-0.313,0.063
11/26/2023 22:24:08.180,-0.016,-0.43,0.09
11/26/2023 22:24:08.190,-0.023,-0.555,0.152
11/26/2023 22:24:08.200,-0.027,-0.707,0.332
11/26/2023 22:24:08.210,0.023,-0.891,0.785
11/26/2023 22:24:08.220,0.141,-1.121,1.277
11/26/2023 22:24:08.230,0.262,-1.395,0.875
11/26/2023 22:24:08.240,0.094,-2.555,-0.438
11/26/2023 22:24:08.250,-0.727,-6.301,-1.684
11/26/2023 22:24:08.260,-0.809,-7.926,-1.289
11/26/2023 22:24:08.270,-0.316,-8,-0.906
11/26/2023 22:24:08.280,0.234,-6.348,-0.016
11/26/2023 22:24:08.290,0.73,-2.566,-0.313
11/26/2023 22:24:08.300,0.848,0.004,-1.09
11/26/2023 22:24:08.310,0.664,0.781,-1.648
11/26/2023 22:24:08.320,0.508,0.746,-1.375
11/26/2023 22:24:08.330,0.289,0.09,-0.531
11/26/2023 22:24:08.340,0.023,-0.789,0.313
11/26/2023 22:24:08.350,-0.105,-1.277,0.719
11/26/2023 22:24:08.360,-0.137,-1.176,0.676
11/26/2023 22:24:08.370,-0.137,-0.707,0.344
11/26/2023 22:24:08.380,-0.172,-0.16,0.004
11/26/2023 22:24:08.390,-0.227,0.289,-0.246
11/26/2023 22:24:08.400,-0.27,0.59,-0.395
11/26/2023 22:24:08.410,-0.242,0.723,-0.434
11/26/2023 22:24:08.420,-0.137,0.695,-0.41
11/26/2023 22:24:08.430,0.035,0.57,-0.363
11/26/2023 22:24:08.440,0.168,0.426,-0.281
11/26/2023 22:24:08.450,0.203,0.297,-0.25
11/26/2023 22:24:08.460,0.18,0.215,-0.203
11/26/2023 22:24:08.470,0.184,0.184,-0.098
11/26/2023 22:24:08.480,0.223,0.168,0.027
11/26/2023 22:24:08.490,0.254,0.141,0.105
11/26/2023 22:24:08.500,0.23,0.086,0.141
11/26/2023 22:24:08.510,0.172,-0.004,0.145
11/26/2023 22:24:08.520,0.094,-0.082,0.133
11/26/2023 22:24:08.530,0.047,-0.133,0.113
11/26/2023 22:24:08.540,0.008,-0.16,0.137
11/26/2023 22:24:08.550,-0.047,-0.18,0.203
11/26/2023 22:24:08.560,-0.113,-0.191,0.238
11/26/2023 22:24:08.570,-0.172,-0.211,0.188
11/26/2023 22:24:08.580,-0.215,-0.277,0.078
11/26/2023 22:24:08.590,-0.234,-0.395,-0.125
11/26/2023 22:24:08.600,-0.184,-0.535,-0.309
11/26/2023 22:24:08.610,-0.027,-0.738,-0.207
11/26/2023 22:24:08.620,0.207,-1.074,0.34
11/26/2023 22:24:08.630,0.508,-1.535,0.551
11/26/2023 22:24:08.640,0.719,-2.648,-0.168
11/26/2023 22:24:08.650,0.031,-6.043,-1.414
11/26/2023 22:24:08.660,-0.719,-7.805,-1.324
11/26/2023 22:24:08.670,-0.488,-8,-0.906
11/26/2023 22:24:08.680,0.16,-6.223,0.27
11/26/2023 22:24:08.690,0.57,-2.711,-0.098
11/26/2023 22:24:08.700,0.574,-0.246,-1.031
11/26/2023 22:24:08.710,0.395,0.363,-1.441
11/26/2023 22:24:08.720,0.039,-0.031,-0.953
11/26/2023 22:24:08.730,-0.406,-0.953,-0.07
11/26/2023 22:24:08.740,-0.539,-1.625,0.516
11/26/2023 22:24:08.750,-0.406,-1.641,0.527
11/26/2023 22:24:08.760,-0.27,-1.176,0.203
11/26/2023 22:24:08.770,-0.18,-0.57,-0.137
11/26/2023 22:24:08.780,-0.047,-0.078,-0.281
11/26/2023 22:24:08.790,0.137,0.238,-0.262
11/26/2023 22:24:08.800,0.293,0.445,-0.203
11/26/2023 22:24:08.810,0.352,0.586,-0.172
11/26/2023 22:24:08.820,0.313,0.656,-0.176
11/26/2023 22:24:08.830,0.27,0.695,-0.27
11/26/2023 22:24:08.840,0.25,0.691,-0.371
11/26/2023 22:24:08.850,0.258,0.637,-0.387
11/26/2023 22:24:08.860,0.25,0.531,-0.348
11/26/2023 22:24:08.870,0.219,0.387,-0.262
11/26/2023 22:24:08.880,0.184,0.238,-0.16
11/26/2023 22:24:08.890,0.133,0.086,-0.043
11/26/2023 22:24:08.900,0.09,-0.043,0.047
11/26/2023 22:24:08.910,0.063,-0.125,0.09
11/26/2023 22:24:08.920,0.008,-0.168,0.102
11/26/2023 22:24:08.930,-0.035,-0.191,0.09
11/26/2023 22:24:08.940,-0.031,-0.191,0.094
11/26/2023 22:24:08.950,0.008,-0.207,0.145
11/26/2023 22:24:08.960,0.039,-0.238,0.207
11/26/2023 22:24:08.970,0.035,-0.27,0.223
11/26/2023 22:24:08.980,0.012,-0.266,0.172
11/26/2023 22:24:08.990,-0.016,-0.234,0.113
11/26/2023 22:24:09.000,-0.039,-0.23,0.086
11/26/2023 22:24:09.010,-0.02,-0.336,0.094
11/26/2023 22:24:09.020,0.004,-0.516,0.078
11/26/2023 22:24:09.030,0.02,-0.723,0.219
11/26/2023 22:24:09.040,0.152,-0.891,0.719
11/26/2023 22:24:09.050,0.414,-1.082,1.262
11/26/2023 22:24:09.060,0.625,-1.441,0.379
11/26/2023 22:24:09.070,0.008,-4.219,-1.484
11/26/2023 22:24:09.080,0.086,-3.691,-0.848
11/26/2023 22:24:09.090,-0.422,-6.348,-1.082
11/26/2023 22:24:09.100,0.09,-7.07,-0.5
11/26/2023 22:24:09.110,0.586,-3.688,-0.191
11/26/2023 22:24:09.120,0.609,-0.313,-0.801
11/26/2023 22:24:09.130,0.547,1.082,-1.551
11/26/2023 22:24:09.140,0.406,0.938,-1.363
11/26/2023 22:24:09.150,0.039,0.102,-0.371
11/26/2023 22:24:09.160,-0.379,-0.977,0.363
11/26/2023 22:24:09.170,-0.523,-1.445,0.574
11/26/2023 22:24:09.180,-0.434,-1.219,0.406
11/26/2023 22:24:09.190,-0.254,-0.602,0.137
11/26/2023 22:24:09.200,-0.09,0.008,-0.066
11/26/2023 22:24:09.210,0.051,0.453,-0.293
11/26/2023 22:24:09.220,0.18,0.715,-0.473
11/26/2023 22:24:09.230,0.313,0.84,-0.555
11/26/2023 22:24:09.240,0.43,0.867,-0.598
11/26/2023 22:24:09.250,0.492,0.805,-0.672
11/26/2023 22:24:09.260,0.488,0.641,-0.645
11/26/2023 22:24:09.270,0.484,0.43,-0.453
11/26/2023 22:24:09.280,0.5,0.242,-0.164
11/26/2023 22:24:09.290,0.477,0.074,0.063
11/26/2023 22:24:09.300,0.383,-0.051,0.172
11/26/2023 22:24:09.310,0.258,-0.129,0.172
11/26/2023 22:24:09.320,0.141,-0.176,0.145
11/26/2023 22:24:09.330,0.078,-0.18,0.105
11/26/2023 22:24:09.340,0.031,-0.176,0.066
11/26/2023 22:24:09.350,0,-0.152,0.016
11/26/2023 22:24:09.360,-0.035,-0.141,-0.063
11/26/2023 22:24:09.370,-0.043,-0.117,-0.117
11/26/2023 22:24:09.380,-0.035,-0.086,-0.105
11/26/2023 22:24:09.390,-0.043,-0.043,-0.039
11/26/2023 22:24:09.400,-0.063,0.012,-0.027
11/26/2023 22:24:09.410,-0.105,0.039,-0.082
11/26/2023 22:24:09.420,-0.125,-0.082,-0.078
11/26/2023 22:24:09.430,-0.113,-0.367,0.016
11/26/2023 22:24:09.440,-0.023,-0.719,0.367
11/26/2023 22:24:09.450,0.113,-1.02,1.055
11/26/2023 22:24:09.460,0.297,-1.215,1.695
11/26/2023 22:24:09.470,0.543,-1.32,1.238
11/26/2023 22:24:09.480,0.656,-1.992,-0.828
11/26/2023 22:24:09.490,0.359,-4.438,-1.961
11/26/2023 22:24:09.500,0.203,-3.453,-0.879
11/26/2023 22:24:09.510,-0.02,-6.91,-1.02
11/26/2023 22:24:09.520,0.461,-5.906,-0.316
11/26/2023 22:24:09.530,0.586,-2.168,-0.84
11/26/2023 22:24:09.540,0.383,0.543,-1.504
11/26/2023 22:24:09.550,0.289,1.246,-1.949
11/26/2023 22:24:09.560,0.148,0.961,-1.367
11/26/2023 22:24:09.570,-0.188,0.035,-0.176
11/26/2023 22:24:09.580,-0.441,-1.023,0.656
11/26/2023 22:24:09.590,-0.422,-1.484,0.883
11/26/2023 22:24:09.600,-0.258,-1.215,0.75
11/26/2023 22:24:09.610,-0.105,-0.605,0.438
11/26/2023 22:24:09.620,-0.043,-0.039,0.086
11/26/2023 22:24:09.630,-0.07,0.359,-0.227
11/26/2023 22:24:09.640,-0.129,0.652,-0.441
11/26/2023 22:24:09.650,-0.145,0.852,-0.563
11/26/2023 22:24:09.660,-0.086,0.918,-0.676
11/26/2023 22:24:09.670,0.066,0.809,-0.754
11/26/2023 22:24:09.680,0.195,0.586,-0.707
11/26/2023 22:24:09.690,0.25,0.336,-0.523
11/26/2023 22:24:09.700,0.273,0.152,-0.258
11/26/2023 22:24:09.710,0.297,0.055,-0.004
11/26/2023 22:24:09.720,0.313,-0.004,0.184
11/26/2023 22:24:09.730,0.309,-0.039,0.25
11/26/2023 22:24:09.740,0.266,-0.082,0.246
11/26/2023 22:24:09.750,0.203,-0.133,0.207
11/26/2023 22:24:09.760,0.133,-0.172,0.176
11/26/2023 22:24:09.770,0.074,-0.219,0.137
11/26/2023 22:24:09.780,0.051,-0.227,0.102
11/26/2023 22:24:09.790,0.035,-0.219,0.082
11/26/2023 22:24:09.800,0.004,-0.199,0.07
11/26/2023 22:24:09.810,-0.051,-0.16,0.012
11/26/2023 22:24:09.820,-0.113,-0.121,-0.082
11/26/2023 22:24:09.830,-0.16,-0.191,-0.137
11/26/2023 22:24:09.840,-0.164,-0.395,-0.094
11/26/2023 22:24:09.850,-0.152,-0.648,0.121
11/26/2023 22:24:09.860,-0.066,-0.805,0.598
11/26/2023 22:24:09.870,0.102,-0.91,1.121
11/26/2023 22:24:09.880,0.355,-1.066,1.117
11/26/2023 22:24:09.890,0.605,-1.535,0.207
11/26/2023 22:24:09.900,0.52,-4.23,-1.262
11/26/2023 22:24:09.910,0.441,-4.129,-0.695
11/26/2023 22:24:09.920,-0.445,-6.688,-1.035
11/26/2023 22:24:09.930,-0.477,-7.051,-0.684
11/26/2023 22:24:09.940,-0.242,-3.648,-0.406
11/26/2023 22:24:09.950,-0.156,-0.641,-0.859
11/26/2023 22:24:09.960,0.129,0.723,-1.379
11/26/2023 22:24:09.970,0.203,0.715,-1.207
11/26/2023 22:24:09.980,-0.031,-0.031,-0.262
11/26/2023 22:24:09.990,-0.258,-1.008,0.512
11/26/2023 22:24:10.000,-0.234,-1.496,0.723
11/26/2023 22:24:10.010,-0.055,-1.324,0.574
11/26/2023 22:24:10.020,0.121,-0.797,0.258
11/26/2023 22:24:10.030,0.25,-0.227,-0.012
11/26/2023 22:24:10.040,0.359,0.195,-0.141
11/26/2023 22:24:10.050,0.414,0.461,-0.156
11/26/2023 22:24:10.060,0.383,0.605,-0.188
11/26/2023 22:24:10.070,0.246,0.633,-0.301
11/26/2023 22:24:10.080,0.113,0.645,-0.473
11/26/2023 22:24:10.090,0.047,0.664,-0.617
11/26/2023 22:24:10.100,0.02,0.633,-0.66
11/26/2023 22:24:10.110,0.008,0.523,-0.598
11/26/2023 22:24:10.120,0.02,0.391,-0.414
11/26/2023 22:24:10.130,0.059,0.281,-0.164
11/26/2023 22:24:10.140,0.078,0.172,0.035
11/26/2023 22:24:10.150,0.074,0.063,0.133
11/26/2023 22:24:10.160,0.051,-0.051,0.164
11/26/2023 22:24:10.170,0.027,-0.164,0.172
11/26/2023 22:24:10.180,0.027,-0.27,0.152
11/26/2023 22:24:10.190,0.063,-0.313,0.117
11/26/2023 22:24:10.200,0.109,-0.316,0.07
11/26/2023 22:24:10.210,0.125,-0.293,0.047
11/26/2023 22:24:10.220,0.125,-0.254,0.063
11/26/2023 22:24:10.230,0.105,-0.227,0.121
11/26/2023 22:24:10.240,0.047,-0.203,0.113
11/26/2023 22:24:10.250,-0.027,-0.195,0.117
11/26/2023 22:24:10.260,-0.094,-0.285,0.199
11/26/2023 22:24:10.270,-0.129,-0.383,0.188
11/26/2023 22:24:10.280,-0.094,-0.488,0.098
11/26/2023 22:24:10.290,0.023,-0.656,0.309
11/26/2023 22:24:10.300,0.25,-0.98,1
11/26/2023 22:24:10.310,0.5,-1.539,0.805
11/26/2023 22:24:10.320,-0.066,-4.004,-1.027
11/26/2023 22:24:10.330,-0.004,-4.176,-0.836
11/26/2023 22:24:10.340,-0.352,-5.68,-0.906
11/26/2023 22:24:10.350,0,-7.41,-0.664
11/26/2023 22:24:10.360,0.66,-4.121,-0.332
11/26/2023 22:24:10.370,0.707,-0.297,-0.906
11/26/2023 22:24:10.380,0.457,1.391,-1.801
11/26/2023 22:24:10.390,0.203,1.363,-1.789
11/26/2023 22:24:10.400,-0.105,0.637,-0.625
11/26/2023 22:24:10.410,-0.41,-0.426,0.246
11/26/2023 22:24:10.420,-0.465,-1.016,0.492
11/26/2023 22:24:10.430,-0.316,-0.965,0.453
11/26/2023 22:24:10.440,-0.043,-0.543,0.297
11/26/2023 22:24:10.450,0.219,-0.074,0.098
11/26/2023 22:24:10.460,0.344,0.211,-0.145
11/26/2023 22:24:10.470,0.336,0.328,-0.305
11/26/2023 22:24:10.480,0.258,0.414,-0.352
11/26/2023 22:24:10.490,0.168,0.473,-0.367
11/26/2023 22:24:10.500,0.109,0.516,-0.391
11/26/2023 22:24:10.510,0.16,0.508,-0.422
11/26/2023 22:24:10.520,0.23,0.426,-0.41
11/26/2023 22:24:10.530,0.277,0.285,-0.34
11/26/2023 22:24:10.540,0.27,0.137,-0.25
11/26/2023 22:24:10.550,0.246,0.012,-0.16
11/26/2023 22:24:10.560,0.234,-0.07,-0.09
11/26/2023 22:24:10.570,0.238,-0.094,-0.039
11/26/2023 22:24:10.580,0.246,-0.074,0.008
11/26/2023 22:24:10.590,0.23,-0.047,0.039
11/26/2023 22:24:10.600,0.203,-0.02,0.082
11/26/2023 22:24:10.610,0.184,-0.02,0.156
11/26/2023 22:24:10.620,0.148,-0.059,0.266
11/26/2023 22:24:10.630,0.09,-0.098,0.328
11/26/2023 22:24:10.640,0.008,-0.109,0.285
11/26/2023 22:24:10.650,-0.059,-0.133,0.121
11/26/2023 22:24:10.660,-0.105,-0.219,-0.063
11/26/2023 22:24:10.670,-0.105,-0.324,-0.152
11/26/2023 22:24:10.680,-0.039,-0.516,0.043
11/26/2023 22:24:10.690,0.047,-0.883,0.793
11/26/2023 22:24:10.700,0.047,-1.313,1.141
11/26/2023 22:24:10.710,-0.227,-2.008,0.031
11/26/2023 22:24:10.720,-1.219,-4.887,-1.648
11/26/2023 22:24:10.730,-1.551,-7.461,-1.672
11/26/2023 22:24:10.740,-0.965,-8,-0.953
11/26/2023 22:24:10.750,0.227,-7.637,0.285
11/26/2023 22:24:10.760,0.738,-3.84,0.309
11/26/2023 22:24:10.770,0.652,-0.613,-0.617
11/26/2023 22:24:10.780,0.527,0.48,-1.301
11/26/2023 22:24:10.790,0.383,0.426,-0.898
11/26/2023 22:24:10.800,0.105,-0.301,0.031
11/26/2023 22:24:10.810,-0.145,-1.156,0.598
11/26/2023 22:24:10.820,-0.246,-1.555,0.633
11/26/2023 22:24:10.830,-0.25,-1.371,0.375
11/26/2023 22:24:10.840,-0.215,-0.891,0.086
11/26/2023 22:24:10.850,-0.121,-0.363,-0.133
11/26/2023 22:24:10.860,0.031,0.066,-0.23
11/26/2023 22:24:10.870,0.184,0.332,-0.207
11/26/2023 22:24:10.880,0.297,0.504,-0.176
11/26/2023 22:24:10.890,0.363,0.637,-0.188
11/26/2023 22:24:10.900,0.363,0.684,-0.238
11/26/2023 22:24:10.910,0.375,0.633,-0.293
11/26/2023 22:24:10.920,0.414,0.52,-0.332
11/26/2023 22:24:10.930,0.414,0.41,-0.379
11/26/2023 22:24:10.940,0.34,0.348,-0.391
11/26/2023 22:24:10.950,0.234,0.328,-0.344
11/26/2023 22:24:10.960,0.152,0.277,-0.203
11/26/2023 22:24:10.970,0.117,0.172,-0.016
11/26/2023 22:24:10.980,0.117,0.043,0.168
11/26/2023 22:24:10.990,0.082,-0.105,0.309
11/26/2023 22:24:11.000,-0.004,-0.227,0.379
11/26/2023 22:24:11.010,-0.063,-0.273,0.371
11/26/2023 22:24:11.020,-0.098,-0.242,0.293
11/26/2023 22:24:11.030,-0.105,-0.168,0.219
11/26/2023 22:24:11.040,-0.121,-0.086,0.137
11/26/2023 22:24:11.050,-0.148,-0.031,0.051
11/26/2023 22:24:11.060,-0.195,-0.043,-0.035
11/26/2023 22:24:11.070,-0.223,-0.148,-0.066
11/26/2023 22:24:11.080,-0.18,-0.359,0.008
11/26/2023 22:24:11.090,-0.027,-0.645,0.156
11/26/2023 22:24:11.100,0.133,-1.055,0.418
11/26/2023 22:24:11.110,0.273,-1.457,0.445
11/26/2023 22:24:11.120,0.258,-2.086,-0.09
11/26/2023 22:24:11.130,-0.285,-5,-1.082
11/26/2023 22:24:11.140,-1.457,-7.824,-2.34
11/26/2023 22:24:11.150,-1.188,-8,-1.559
11/26/2023 22:24:11.160,-0.273,-7.758,-0.016
11/26/2023 22:24:11.170,0.852,-3.98,0.383
11/26/2023 22:24:11.180,1.23,-0.762,-0.32
11/26/2023 22:24:11.190,0.793,0.434,-1.016
11/26/2023 22:24:11.200,0.316,0.531,-0.844
11/26/2023 22:24:11.210,-0.023,-0.109,-0.082
11/26/2023 22:24:11.220,-0.223,-1.008,0.43
11/26/2023 22:24:11.230,-0.316,-1.508,0.59
11/26/2023 22:24:11.240,-0.363,-1.418,0.473
11/26/2023 22:24:11.250,-0.332,-0.957,0.23
11/26/2023 22:24:11.260,-0.234,-0.438,-0.059
11/26/2023 22:24:11.270,-0.113,-0.051,-0.242
11/26/2023 22:24:11.280,-0.039,0.164,-0.293
11/26/2023 22:24:11.290,-0.027,0.285,-0.32
11/26/2023 22:24:11.300,-0.016,0.355,-0.34
11/26/2023 22:24:11.310,0.027,0.395,-0.32
11/26/2023 22:24:11.320,0.148,0.441,-0.297
11/26/2023 22:24:11.330,0.281,0.5,-0.281
11/26/2023 22:24:11.340,0.367,0.559,-0.297
11/26/2023 22:24:11.350,0.395,0.586,-0.297
11/26/2023 22:24:11.360,0.414,0.555,-0.254
11/26/2023 22:24:11.370,0.422,0.434,-0.137
11/26/2023 22:24:11.380,0.402,0.262,0.027
11/26/2023 22:24:11.390,0.32,0.07,0.152
11/26/2023 22:24:11.400,0.191,-0.082,0.195
11/26/2023 22:24:11.410,0.078,-0.164,0.191
11/26/2023 22:24:11.420,-0.008,-0.191,0.176
11/26/2023 22:24:11.430,-0.094,-0.199,0.148
11/26/2023 22:24:11.440,-0.164,-0.203,0.082
11/26/2023 22:24:11.450,-0.25,-0.207,0
11/26/2023 22:24:11.460,-0.328,-0.227,-0.063
11/26/2023 22:24:11.470,-0.367,-0.285,-0.098
11/26/2023 22:24:11.480,-0.344,-0.379,-0.125
11/26/2023 22:24:11.490,-0.215,-0.52,-0.191
11/26/2023 22:24:11.500,0.004,-0.742,-0.086
11/26/2023 22:24:11.510,0.262,-1.031,0.418
11/26/2023 22:24:11.520,0.512,-1.27,0.797
11/26/2023 22:24:11.530,0.609,-1.832,0.406
11/26/2023 22:24:11.540,0.027,-4.449,-0.93
11/26/2023 22:24:11.550,-1.176,-7.602,-1.477
11/26/2023 22:24:11.560,-1.348,-8,-1.082
11/26/2023 22:24:11.570,-0.777,-7.203,0.012
11/26/2023 22:24:11.580,-0.148,-3.648,-0.043
11/26/2023 22:24:11.590,0.074,-0.875,-0.867
11/26/2023 22:24:11.600,0.168,0.109,-1.293
11/26/2023 22:24:11.610,0.211,0.063,-0.785
11/26/2023 22:24:11.620,0.07,-0.633,0
11/26/2023 22:24:11.630,-0.055,-1.332,0.438
11/26/2023 22:24:11.640,-0.063,-1.551,0.477
11/26/2023 22:24:11.650,-0.023,-1.313,0.262
11/26/2023 22:24:11.660,0.055,-0.852,0.016
11/26/2023 22:24:11.670,0.207,-0.379,-0.094
11/26/2023 22:24:11.680,0.398,-0.023,-0.09
11/26/2023 22:24:11.690,0.516,0.191,-0.094
11/26/2023 22:24:11.700,0.496,0.309,-0.168
11/26/2023 22:24:11.710,0.359,0.375,-0.266
11/26/2023 22:24:11.720,0.219,0.414,-0.309
11/26/2023 22:24:11.730,0.156,0.438,-0.27
11/26/2023 22:24:11.740,0.168,0.469,-0.199
11/26/2023 22:24:11.750,0.168,0.496,-0.188
11/26/2023 22:24:11.760,0.109,0.516,-0.246
11/26/2023 22:24:11.770,0.035,0.496,-0.289
11/26/2023 22:24:11.780,0.016,0.422,-0.25
11/26/2023 22:24:11.790,0.027,0.285,-0.109
11/26/2023 22:24:11.800,0.035,0.09,0.055
11/26/2023 22:24:11.810,0.039,-0.086,0.152
11/26/2023 22:24:11.820,0.02,-0.215,0.215
11/26/2023 22:24:11.830,0.008,-0.281,0.234
11/26/2023 22:24:11.840,0,-0.313,0.254
11/26/2023 22:24:11.850,0,-0.313,0.309
11/26/2023 22:24:11.860,-0.039,-0.285,0.289
11/26/2023 22:24:11.870,-0.113,-0.262,0.176
11/26/2023 22:24:11.880,-0.137,-0.313,0.035
11/26/2023 22:24:11.890,-0.082,-0.445,-0.109
11/26/2023 22:24:11.900,0.008,-0.656,-0.066
11/26/2023 22:24:11.910,0.066,-0.914,0.301
11/26/2023 22:24:11.920,0.039,-1.211,0.891
11/26/2023 22:24:11.930,0.023,-1.504,0.777
11/26/2023 22:24:11.940,-0.469,-2.785,-0.695
11/26/2023 22:24:11.950,-1.926,-6.453,-1.645
11/26/2023 22:24:11.960,-1.891,-8,-1.512
11/26/2023 22:24:11.970,-0.82,-8,-0.637
11/26/2023 22:24:11.980,0.262,-6.344,0.422
11/26/2023 22:24:11.990,0.922,-2.688,0.211
11/26/2023 22:24:12.000,0.941,-0.156,-0.48
11/26/2023 22:24:12.010,0.438,0.469,-0.961
11/26/2023 22:24:12.020,-0.082,0.289,-0.691
11/26/2023 22:24:12.030,-0.316,-0.371,-0.082
11/26/2023 22:24:12.040,-0.348,-0.984,0.289
11/26/2023 22:24:12.050,-0.383,-1.184,0.352
11/26/2023 22:24:12.060,-0.414,-1.012,0.238
11/26/2023 22:24:12.070,-0.336,-0.652,0.012
11/26/2023 22:24:12.080,-0.102,-0.258,-0.168
11/26/2023 22:24:12.090,0.191,0.027,-0.262
11/26/2023 22:24:12.100,0.473,0.273,-0.297
11/26/2023 22:24:12.110,0.656,0.441,-0.32
11/26/2023 22:24:12.120,0.73,0.582,-0.34
11/26/2023 22:24:12.130,0.703,0.66,-0.438
11/26/2023 22:24:12.140,0.629,0.691,-0.516
11/26/2023 22:24:12.150,0.531,0.641,-0.551
11/26/2023 22:24:12.160,0.422,0.488,-0.484
11/26/2023 22:24:12.170,0.324,0.305,-0.328
11/26/2023 22:24:12.180,0.262,0.129,-0.117
11/26/2023 22:24:12.190,0.199,-0.012,0.07
11/26/2023 22:24:12.200,0.129,-0.105,0.191
11/26/2023 22:24:12.210,0.055,-0.145,0.238
11/26/2023 22:24:12.220,-0.035,-0.145,0.207
11/26/2023 22:24:12.230,-0.133,-0.125,0.133
11/26/2023 22:24:12.240,-0.191,-0.113,0.078
11/26/2023 22:24:12.250,-0.191,-0.117,0.051
11/26/2023 22:24:12.260,-0.172,-0.113,0.023
11/26/2023 22:24:12.270,-0.172,-0.109,-0.012
11/26/2023 22:24:12.280,-0.164,-0.121,0.02
11/26/2023 22:24:12.290,-0.102,-0.215,0.105
11/26/2023 22:24:12.300,0.051,-0.387,0.207
11/26/2023 22:24:12.310,0.242,-0.602,0.367
11/26/2023 22:24:12.320,0.348,-0.875,0.707
11/26/2023 22:24:12.330,0.313,-1.195,1.09
11/26/2023 22:24:12.340,0.176,-1.492,0.754
11/26/2023 22:24:12.350,-0.242,-2.637,-0.684
11/26/2023 22:24:12.360,-1.121,-6.18,-1.918
11/26/2023 22:24:12.370,-1.5,-8,-1.176
11/26/2023 22:24:12.380,-0.773,-8,-0.422
11/26/2023 22:24:12.390,0.176,-6.004,0.375
11/26/2023 22:24:12.400,0.297,-2.625,-0.418
11/26/2023 22:24:12.410,0.152,-0.414,-1.195
11/26/2023 22:24:12.420,0.105,0.359,-1.285
11/26/2023 22:24:12.430,-0.027,0.23,-0.633
11/26/2023 22:24:12.440,-0.336,-0.531,0.223
11/26/2023 22:24:12.450,-0.559,-1.27,0.66
11/26/2023 22:24:12.460,-0.574,-1.477,0.656
11/26/2023 22:24:12.470,-0.457,-1.184,0.449
11/26/2023 22:24:12.480,-0.258,-0.672,0.199
11/26/2023 22:24:12.490,0.012,-0.199,0.043
11/26/2023 22:24:12.500,0.27,0.102,0.031
11/26/2023 22:24:12.510,0.434,0.242,0.055
11/26/2023 22:24:12.520,0.41,0.32,0.02
11/26/2023 22:24:12.530,0.285,0.398,-0.117
11/26/2023 22:24:12.540,0.172,0.457,-0.234
11/26/2023 22:24:12.550,0.184,0.512,-0.344
11/26/2023 22:24:12.560,0.293,0.516,-0.41
11/26/2023 22:24:12.570,0.402,0.477,-0.406
11/26/2023 22:24:12.580,0.383,0.387,-0.375
11/26/2023 22:24:12.590,0.277,0.27,-0.313
11/26/2023 22:24:12.600,0.156,0.156,-0.191
11/26/2023 22:24:12.610,0.082,0.055,-0.016
11/26/2023 22:24:12.620,0.051,-0.027,0.156
11/26/2023 22:24:12.630,0.004,-0.102,0.25
11/26/2023 22:24:12.640,-0.055,-0.137,0.273
11/26/2023 22:24:12.650,-0.109,-0.145,0.258
11/26/2023 22:24:12.660,-0.152,-0.133,0.215
11/26/2023 22:24:12.670,-0.184,-0.121,0.141
11/26/2023 22:24:12.680,-0.207,-0.137,0.066
11/26/2023 22:24:12.690,-0.203,-0.207,0.039
11/26/2023 22:24:12.700,-0.156,-0.34,0.039
11/26/2023 22:24:12.710,-0.063,-0.516,0.121
11/26/2023 22:24:12.720,0.043,-0.75,0.395
11/26/2023 22:24:12.730,0.066,-1.078,0.805
11/26/2023 22:24:12.740,-0.027,-1.516,0.797
11/26/2023 22:24:12.750,-0.395,-2.613,-0.105
11/26/2023 22:24:12.760,-1.391,-5.988,-0.863
11/26/2023 22:24:12.770,-1.641,-8,-0.566
11/26/2023 22:24:12.780,-0.988,-8,-0.301
11/26/2023 22:24:12.790,0.016,-5.691,0.719
11/26/2023 22:24:12.800,0.477,-2.387,0.234
11/26/2023 22:24:12.810,0.621,-0.457,-0.535
11/26/2023 22:24:12.820,0.668,0.055,-0.793
11/26/2023 22:24:12.830,0.449,-0.301,-0.32
11/26/2023 22:24:12.840,0.09,-1.059,0.289
11/26/2023 22:24:12.850,-0.098,-1.512,0.551
11/26/2023 22:24:12.860,-0.117,-1.453,0.477
11/26/2023 22:24:12.870,-0.09,-1.07,0.188
11/26/2023 22:24:12.880,-0.023,-0.609,-0.086
11/26/2023 22:24:12.890,0.105,-0.25,-0.195
11/26/2023 22:24:12.900,0.227,-0.059,-0.203
11/26/2023 22:24:12.910,0.27,0.043,-0.191
11/26/2023 22:24:12.920,0.23,0.102,-0.184
11/26/2023 22:24:12.930,0.164,0.164,-0.188
11/26/2023 22:24:12.940,0.125,0.238,-0.195
11/26/2023 22:24:12.950,0.125,0.348,-0.238
11/26/2023 22:24:12.960,0.176,0.473,-0.289
11/26/2023 22:24:12.970,0.199,0.59,-0.324
11/26/2023 22:24:12.980,0.18,0.625,-0.344
11/26/2023 22:24:12.990,0.152,0.566,-0.309
11/26/2023 22:24:13.000,0.156,0.434,-0.191
11/26/2023 22:24:13.010,0.176,0.281,-0.027
11/26/2023 22:24:13.020,0.145,0.129,0.09
11/26/2023 22:24:13.030,0.063,0.012,0.129
11/26/2023 22:24:13.040,-0.012,-0.074,0.086
11/26/2023 22:24:13.050,-0.035,-0.117,0.047
11/26/2023 22:24:13.060,-0.043,-0.141,0.02
11/26/2023 22:24:13.070,-0.051,-0.152,0.02
11/26/2023 22:24:13.080,-0.07,-0.168,0.07
11/26/2023 22:24:13.090,-0.113,-0.203,0.027
11/26/2023 22:24:13.100,-0.137,-0.313,-0.055
11/26/2023 22:24:13.110,-0.078,-0.484,0.027
11/26/2023 22:24:13.120,0.055,-0.719,0.297
11/26/2023 22:24:13.130,0.199,-0.977,0.719
11/26/2023 22:24:13.140,0.375,-1.238,1.297
11/26/2023 22:24:13.150,0.609,-1.652,0.922
11/26/2023 22:24:13.160,0.355,-3.875,-0.938
11/26/2023 22:24:13.170,-0.043,-6.793,-0.625
11/26/2023 22:24:13.180,-0.238,-8,-0.602
11/26/2023 22:24:13.190,-0.07,-7.938,-0.445
11/26/2023 22:24:13.200,0.234,-4.801,0.043
11/26/2023 22:24:13.210,0.105,-1.68,-0.594
11/26/2023 22:24:13.220,-0.043,0.09,-1.191
11/26/2023 22:24:13.230,-0.242,0.445,-1.309
11/26/2023 22:24:13.240,-0.457,-0.055,-0.602
11/26/2023 22:24:13.250,-0.574,-0.863,0.281
11/26/2023 22:24:13.260,-0.516,-1.363,0.59
11/26/2023 22:24:13.270,-0.355,-1.273,0.488
11/26/2023 22:24:13.280,-0.152,-0.758,0.25
11/26/2023 22:24:13.290,0.082,-0.199,0.07
11/26/2023 22:24:13.300,0.316,0.203,-0.035
11/26/2023 22:24:13.310,0.496,0.453,-0.117
11/26/2023 22:24:13.320,0.563,0.617,-0.215
11/26/2023 22:24:13.330,0.566,0.73,-0.34
11/26/2023 22:24:13.340,0.535,0.758,-0.465
11/26/2023 22:24:13.350,0.492,0.691,-0.559
11/26/2023 22:24:13.360,0.422,0.566,-0.559
11/26/2023 22:24:13.370,0.309,0.387,-0.492
11/26/2023 22:24:13.380,0.184,0.223,-0.363
11/26/2023 22:24:13.390,0.078,0.105,-0.211
11/26/2023 22:24:13.400,0.023,0.035,-0.09
11/26/2023 22:24:13.410,-0.016,-0.008,-0.027
11/26/2023 22:24:13.420,-0.047,-0.051,-0.031
11/26/2023 22:24:13.430,-0.082,-0.086,-0.07
11/26/2023 22:24:13.440,-0.105,-0.113,-0.102
11/26/2023 22:24:13.450,-0.086,-0.137,-0.09
11/26/2023 22:24:13.460,-0.035,-0.168,-0.016
11/26/2023 22:24:13.470,0.004,-0.191,0.063
11/26/2023 22:24:13.480,0.012,-0.203,0.082
11/26/2023 22:24:13.490,-0.02,-0.25,0.082
11/26/2023 22:24:13.500,-0.027,-0.367,0.148
11/26/2023 22:24:13.510,0.063,-0.563,0.242
11/26/2023 22:24:13.520,0.199,-0.77,0.383
11/26/2023 22:24:13.530,0.301,-1.012,0.73
11/26/2023 22:24:13.540,0.352,-1.316,1.227
11/26/2023 22:24:13.550,0.293,-1.832,0.945
11/26/2023 22:24:13.560,-0.434,-3.625,-0.645
11/26/2023 22:24:13.570,-1.34,-6.945,-0.945
11/26/2023 22:24:13.580,-1.078,-8,-0.855
11/26/2023 22:24:13.590,-0.281,-7.832,-0.34
11/26/2023 22:24:13.600,0.43,-5.234,0.5
11/26/2023 22:24:13.610,0.43,-2.402,-0.219
11/26/2023 22:24:13.620,0.262,-0.559,-0.926
11/26/2023 22:24:13.630,0.164,0.016,-1.047
11/26/2023 22:24:13.640,0,-0.297,-0.398
11/26/2023 22:24:13.650,-0.188,-1.02,0.375
11/26/2023 22:24:13.660,-0.227,-1.508,0.699
11/26/2023 22:24:13.670,-0.172,-1.434,0.594
11/26/2023 22:24:13.680,-0.137,-1.016,0.289
11/26/2023 22:24:13.690,-0.102,-0.5,-0.023
11/26/2023 22:24:13.700,-0.035,-0.105,-0.18
11/26/2023 22:24:13.710,0.059,0.141,-0.203
11/26/2023 22:24:13.720,0.129,0.305,-0.191
11/26/2023 22:24:13.730,0.137,0.43,-0.172
11/26/2023 22:24:13.740,0.133,0.539,-0.188
11/26/2023 22:24:13.750,0.168,0.625,-0.223
11/26/2023 22:24:13.760,0.277,0.676,-0.266
11/26/2023 22:24:13.770,0.367,0.676,-0.289
11/26/2023 22:24:13.780,0.375,0.613,-0.305
11/26/2023 22:24:13.790,0.324,0.508,-0.289
11/26/2023 22:24:13.800,0.281,0.398,-0.227
11/26/2023 22:24:13.810,0.262,0.277,-0.152
11/26/2023 22:24:13.820,0.246,0.148,-0.086
11/26/2023 22:24:13.830,0.215,0.02,-0.039
11/26/2023 22:24:13.840,0.172,-0.094,-0.008
11/26/2023 22:24:13.850,0.137,-0.195,0.004
11/26/2023 22:24:13.860,0.129,-0.273,0.008
11/26/2023 22:24:13.870,0.121,-0.344,0.031
11/26/2023 22:24:13.880,0.133,-0.395,0.07
11/26/2023 22:24:13.890,0.145,-0.449,0.121
11/26/2023 22:24:13.900,0.133,-0.52,0.09
11/26/2023 22:24:13.910,0.129,-0.605,0.059
11/26/2023 22:24:13.920,0.145,-0.691,0.168
11/26/2023 22:24:13.930,0.18,-0.734,0.289
11/26/2023 22:24:13.940,0.227,-0.762,0.379
11/26/2023 22:24:13.950,0.348,-0.824,0.652
11/26/2023 22:24:13.960,0.531,-0.973,0.965
11/26/2023 22:24:13.970,0.684,-1.344,0.832
11/26/2023 22:24:13.980,0.641,-2.297,0.148
11/26/2023 22:24:13.990,-0.504,-5.57,-0.637
11/26/2023 22:24:14.000,-1.641,-8,-0.555
11/26/2023 22:24:14.010,-1.551,-8,-0.98
11/26/2023 22:24:14.020,-0.727,-6.504,-0.203
11/26/2023 22:24:14.030,-0.293,-2.488,-0.383
11/26/2023 22:24:14.040,-0.406,0.031,-1.18
11/26/2023 22:24:14.050,-0.371,0.676,-1.688
11/26/2023 22:24:14.060,-0.184,0.344,-1.207
11/26/2023 22:24:14.070,-0.074,-0.555,-0.227
11/26/2023 22:24:14.080,0.055,-1.441,0.473
11/26/2023 22:24:14.090,0.281,-1.742,0.695
11/26/2023 22:24:14.100,0.457,-1.469,0.566
11/26/2023 22:24:14.110,0.527,-0.938,0.289
11/26/2023 22:24:14.120,0.531,-0.367,0.043
11/26/2023 22:24:14.130,0.484,0.09,-0.082
11/26/2023 22:24:14.140,0.395,0.383,-0.109
11/26/2023 22:24:14.150,0.254,0.492,-0.09
11/26/2023 22:24:14.160,0.113,0.484,-0.07
11/26/2023 22:24:14.170,0.043,0.438,-0.051
11/26/2023 22:24:14.180,0.008,0.406,-0.074
11/26/2023 22:24:14.190,-0.023,0.438,-0.168
11/26/2023 22:24:14.200,-0.066,0.516,-0.309
11/26/2023 22:24:14.210,-0.109,0.609,-0.445
11/26/2023 22:24:14.220,-0.141,0.652,-0.531
11/26/2023 22:24:14.230,-0.09,0.621,-0.484
11/26/2023 22:24:14.240,0.008,0.496,-0.324
11/26/2023 22:24:14.250,0.07,0.293,-0.125
11/26/2023 22:24:14.260,0.086,0.043,0.07
11/26/2023 22:24:14.270,0.102,-0.215,0.184
11/26/2023 22:24:14.280,0.156,-0.391,0.215
11/26/2023 22:24:14.290,0.219,-0.465,0.23
11/26/2023 22:24:14.300,0.266,-0.453,0.219
11/26/2023 22:24:14.310,0.266,-0.422,0.172
11/26/2023 22:24:14.320,0.234,-0.422,0.125
11/26/2023 22:24:14.330,0.148,-0.488,0.195
11/26/2023 22:24:14.340,0.063,-0.594,0.273
11/26/2023 22:24:14.350,-0.008,-0.699,0.23
11/26/2023 22:24:14.360,-0.047,-0.832,0.352
11/26/2023 22:24:14.370,-0.105,-1.078,0.68
11/26/2023 22:24:14.380,-0.207,-1.484,0.313
11/26/2023 22:24:14.390,-0.625,-2.934,-1.074
11/26/2023 22:24:14.400,-1.313,-6.551,-1.352
11/26/2023 22:24:14.410,-1.48,-8,-1.285
11/26/2023 22:24:14.420,-0.539,-8,-0.813
11/26/2023 22:24:14.430,0.316,-5.18,0
11/26/2023 22:24:14.440,0.398,-1.777,-0.66
11/26/2023 22:24:14.450,0.719,0.078,-1.25
11/26/2023 22:24:14.460,1.082,0.531,-1.496
11/26/2023 22:24:14.470,1,0.344,-0.816
11/26/2023 22:24:14.480,0.484,-0.371,0.133
11/26/2023 22:24:14.490,-0.023,-1.094,0.582
11/26/2023 22:24:14.500,-0.313,-1.363,0.574
11/26/2023 22:24:14.510,-0.344,-1.098,0.398
11/26/2023 22:24:14.520,-0.262,-0.535,0.168
11/26/2023 22:24:14.530,-0.148,0.074,-0.02
11/26/2023 22:24:14.540,-0.105,0.465,-0.16
11/26/2023 22:24:14.550,-0.113,0.625,-0.254
11/26/2023 22:24:14.560,-0.113,0.633,-0.277
11/26/2023 22:24:14.570,-0.051,0.594,-0.234
11/26/2023 22:24:14.580,0.094,0.59,-0.207
11/26/2023 22:24:14.590,0.242,0.605,-0.254
11/26/2023 22:24:14.600,0.301,0.559,-0.328
11/26/2023 22:24:14.610,0.297,0.43,-0.332
11/26/2023 22:24:14.620,0.277,0.258,-0.219
11/26/2023 22:24:14.630,0.258,0.066,-0.043
11/26/2023 22:24:14.640,0.219,-0.117,0.121
11/26/2023 22:24:14.650,0.168,-0.238,0.191
11/26/2023 22:24:14.660,0.129,-0.277,0.176
11/26/2023 22:24:14.670,0.105,-0.223,0.148
11/26/2023 22:24:14.680,0.082,-0.133,0.098
11/26/2023 22:24:14.690,0.078,-0.063,0.121
11/26/2023 22:24:14.700,0.07,-0.07,0.215
11/26/2023 22:24:14.710,0.02,-0.207,0.316
11/26/2023 22:24:14.720,-0.078,-0.418,0.352
11/26/2023 22:24:14.730,-0.188,-0.613,0.215
11/26/2023 22:24:14.740,-0.258,-0.742,0.137
11/26/2023 22:24:14.750,-0.258,-0.824,0.414
11/26/2023 22:24:14.760,-0.207,-1.004,0.883
11/26/2023 22:24:14.770,-0.199,-1.398,0.516
11/26/2023 22:24:14.780,-0.605,-2.953,-0.957
11/26/2023 22:24:14.790,-1.211,-6.422,-1.266
11/26/2023 22:24:14.800,-1.16,-7.871,-0.949
11/26/2023 22:24:14.810,-0.66,-8,-0.648
11/26/2023 22:24:14.820,0.113,-5.309,-0.281
11/26/2023 22:24:14.830,0.766,-1.594,-0.609
11/26/2023 22:24:14.840,1.086,0.391,-1.039
11/26/2023 22:24:14.850,1.078,0.703,-1.07
11/26/2023 22:24:14.860,0.84,0.355,-0.484
11/26/2023 22:24:14.870,0.477,-0.48,0.258
11/26/2023 22:24:14.880,0.258,-1.199,0.621
11/26/2023 22:24:14.890,0.176,-1.367,0.559
11/26/2023 22:24:14.900,0.121,-1.063,0.332
11/26/2023 22:24:14.910,0.082,-0.57,0.078
11/26/2023 22:24:14.920,0.07,-0.141,-0.109
11/26/2023 22:24:14.930,0.055,0.145,-0.223
11/26/2023 22:24:14.940,0.012,0.293,-0.285
11/26/2023 22:24:14.950,-0.031,0.355,-0.305
11/26/2023 22:24:14.960,-0.055,0.375,-0.297
11/26/2023 22:24:14.970,-0.023,0.402,-0.262
11/26/2023 22:24:14.980,0.059,0.457,-0.254
11/26/2023 22:24:14.990,0.129,0.539,-0.289
11/26/2023 22:24:15.000,0.133,0.598,-0.379
11/26/2023 22:24:15.010,0.129,0.574,-0.414
11/26/2023 22:24:15.020,0.145,0.48,-0.336
11/26/2023 22:24:15.030,0.176,0.309,-0.148
11/26/2023 22:24:15.040,0.195,0.105,0.055
11/26/2023 22:24:15.050,0.18,-0.09,0.188
11/26/2023 22:24:15.060,0.109,-0.242,0.207
11/26/2023 22:24:15.070,0.047,-0.309,0.148
11/26/2023 22:24:15.080,0.02,-0.293,0.082
11/26/2023 22:24:15.090,0.016,-0.25,0.035
11/26/2023 22:24:15.100,-0.012,-0.203,0.008
11/26/2023 22:24:15.110,-0.105,-0.23,-0.008
11/26/2023 22:24:15.120,-0.238,-0.348,0.031
11/26/2023 22:24:15.130,-0.324,-0.539,0.199
11/26/2023 22:24:15.140,-0.336,-0.68,0.316
11/26/2023 22:24:15.150,-0.305,-0.707,0.426
11/26/2023 22:24:15.160,-0.25,-0.672,0.617
11/26/2023 22:24:15.170,-0.266,-0.738,0.66
11/26/2023 22:24:15.180,-0.449,-1.168,0.109
11/26/2023 22:24:15.190,-0.875,-3.324,-1.402
11/26/2023 22:24:15.200,-0.867,-6.242,-1.27
11/26/2023 22:24:15.210,-0.602,-7.777,-1.254
11/26/2023 22:24:15.220,0.582,-7.797,-0.781
11/26/2023 22:24:15.230,1.414,-5.156,0.047
11/26/2023 22:24:15.240,1.234,-2.066,-0.746
11/26/2023 22:24:15.250,1.121,0.168,-1.406
11/26/2023 22:24:15.260,1.113,0.953,-1.648
11/26/2023 22:24:15.270,0.84,0.852,-1.164
11/26/2023 22:24:15.280,0.301,0.246,-0.23
11/26/2023 22:24:15.290,-0.254,-0.633,0.555
11/26/2023 22:24:15.300,-0.492,-1.227,0.77
11/26/2023 22:24:15.310,-0.48,-1.234,0.563
11/26/2023 22:24:15.320,-0.434,-0.832,0.23
11/26/2023 22:24:15.330,-0.441,-0.277,-0.047
11/26/2023 22:24:15.340,-0.457,0.223,-0.277
11/26/2023 22:24:15.350,-0.402,0.559,-0.438
11/26/2023 22:24:15.360,-0.277,0.703,-0.512
11/26/2023 22:24:15.370,-0.125,0.672,-0.484
11/26/2023 22:24:15.380,0,0.539,-0.406
11/26/2023 22:24:15.390,0.066,0.387,-0.293
11/26/2023 22:24:15.400,0.098,0.285,-0.176
11/26/2023 22:24:15.410,0.129,0.254,-0.078
11/26/2023 22:24:15.420,0.164,0.242,-0.004
11/26/2023 22:24:15.430,0.203,0.227,0.043
11/26/2023 22:24:15.440,0.191,0.164,0.078
11/26/2023 22:24:15.450,0.129,0.063,0.109
11/26/2023 22:24:15.460,0.051,-0.055,0.125
11/26/2023 22:24:15.470,-0.012,-0.145,0.145
11/26/2023 22:24:15.480,-0.039,-0.195,0.16
11/26/2023 22:24:15.490,-0.043,-0.23,0.191
11/26/2023 22:24:15.500,-0.047,-0.266,0.223
11/26/2023 22:24:15.510,-0.055,-0.336,0.219
11/26/2023 22:24:15.520,-0.074,-0.449,0.137
11/26/2023 22:24:15.530,-0.059,-0.582,0.02
11/26/2023 22:24:15.540,0.016,-0.723,0.059
11/26/2023 22:24:15.550,0.109,-0.992,0.547
11/26/2023 22:24:15.560,0.137,-1.613,0.668
11/26/2023 22:24:15.570,-0.383,-3.633,-0.453
11/26/2023 22:24:15.580,-1.516,-7.215,-1.047
11/26/2023 22:24:15.590,-1.285,-8,-1.223
11/26/2023 22:24:15.600,-0.395,-8,-0.383
11/26/2023 22:24:15.610,0.426,-4.762,0.254
11/26/2023 22:24:15.620,0.746,-1.391,-0.145
11/26/2023 22:24:15.630,0.777,0.32,-1.043
11/26/2023 22:24:15.640,0.719,0.633,-1.293
11/26/2023 22:24:15.650,0.609,0.305,-0.688
11/26/2023 22:24:15.660,0.355,-0.453,0.145
11/26/2023 22:24:15.670,0.012,-1.152,0.539
11/26/2023 22:24:15.680,-0.227,-1.363,0.551
11/26/2023 22:24:15.690,-0.266,-1.086,0.344
11/26/2023 22:24:15.700,-0.191,-0.59,0.059
11/26/2023 22:24:15.710,-0.082,-0.113,-0.137
11/26/2023 22:24:15.720,0,0.238,-0.27
11/26/2023 22:24:15.730,0.043,0.473,-0.371
11/26/2023 22:24:15.740,0.063,0.563,-0.418
11/26/2023 22:24:15.750,0.113,0.531,-0.406
11/26/2023 22:24:15.760,0.172,0.434,-0.336
11/26/2023 22:24:15.770,0.199,0.34,-0.285
11/26/2023 22:24:15.780,0.172,0.281,-0.25
11/26/2023 22:24:15.790,0.121,0.27,-0.219
11/26/2023 22:24:15.800,0.125,0.277,-0.168
11/26/2023 22:24:15.810,0.188,0.273,-0.09
11/26/2023 22:24:15.820,0.25,0.238,0.012
11/26/2023 22:24:15.830,0.258,0.148,0.105
11/26/2023 22:24:15.840,0.184,0.047,0.16
11/26/2023 22:24:15.850,0.102,-0.035,0.137
11/26/2023 22:24:15.860,0.059,-0.078,0.082
11/26/2023 22:24:15.870,0.039,-0.098,0.07
11/26/2023 22:24:15.880,0.035,-0.109,0.063
11/26/2023 22:24:15.890,0.016,-0.152,0.063
11/26/2023 22:24:15.900,0,-0.254,0.098
11/26/2023 22:24:15.910,0.012,-0.41,0.184
11/26/2023 22:24:15.920,0.043,-0.578,0.309
11/26/2023 22:24:15.930,0.066,-0.754,0.426
11/26/2023 22:24:15.940,0.152,-0.922,0.48
11/26/2023 22:24:15.950,0.23,-1.195,0.57
11/26/2023 22:24:15.960,0.09,-1.867,0.094
11/26/2023 22:24:15.970,-1.066,-4.883,-0.973
11/26/2023 22:24:15.980,-1.797,-7.781,-1.082
11/26/2023 22:24:15.990,-1.215,-8,-1.191
11/26/2023 22:24:16.000,-0.289,-7.273,-0.07
11/26/2023 22:24:16.010,0.254,-3.77,0.23
11/26/2023 22:24:16.020,0.313,-1.027,-0.43
11/26/2023 22:24:16.030,0.434,0.008,-1.031
11/26/2023 22:24:16.040,0.5,-0.035,-0.793
11/26/2023 22:24:16.050,0.375,-0.68,0.031
11/26/2023 22:24:16.060,0.195,-1.371,0.602
11/26/2023 22:24:16.070,0.113,-1.57,0.727
11/26/2023 22:24:16.080,0.082,-1.262,0.547
11/26/2023 22:24:16.090,0.027,-0.727,0.227
11/26/2023 22:24:16.100,-0.023,-0.211,-0.043
11/26/2023 22:24:16.110,-0.07,0.164,-0.172
11/26/2023 22:24:16.120,-0.121,0.359,-0.289
11/26/2023 22:24:16.130,-0.145,0.477,-0.402
11/26/2023 22:24:16.140,-0.07,0.563,-0.438
11/26/2023 22:24:16.150,0.094,0.586,-0.418
11/26/2023 22:24:16.160,0.297,0.605,-0.355
11/26/2023 22:24:16.170,0.371,0.617,-0.352
11/26/2023 22:24:16.180,0.305,0.613,-0.395
11/26/2023 22:24:16.190,0.23,0.586,-0.363
11/26/2023 22:24:16.200,0.215,0.512,-0.227
11/26/2023 22:24:16.210,0.238,0.367,-0.059
11/26/2023 22:24:16.220,0.223,0.164,0.09
11/26/2023 22:24:16.230,0.16,-0.063,0.199
11/26/2023 22:24:16.240,0.082,-0.227,0.215
11/26/2023 22:24:16.250,0.035,-0.305,0.188
11/26/2023 22:24:16.260,0.031,-0.309,0.152
11/26/2023 22:24:16.270,0.031,-0.277,0.109
11/26/2023 22:24:16.280,0.008,-0.258,0.07
11/26/2023 22:24:16.290,-0.035,-0.266,0.074
11/26/2023 22:24:16.300,-0.066,-0.313,0.109
11/26/2023 22:24:16.310,-0.07,-0.426,0.176
11/26/2023 22:24:16.320,-0.047,-0.605,0.301
11/26/2023 22:24:16.330,0.02,-0.773,0.539
11/26/2023 22:24:16.340,0.121,-0.918,0.84
11/26/2023 22:24:16.350,0.207,-1.059,0.848
11/26/2023 22:24:16.360,0.23,-1.422,0.211
11/26/2023 22:24:16.370,-0.449,-3.789,-1.527
11/26/2023 22:24:16.380,-0.445,-4.895,-1.152
11/26/2023 22:24:16.390,-0.645,-7.254,-1.293
11/26/2023 22:24:16.400,0.168,-7.617,-0.461
11/26/2023 22:24:16.410,0.742,-4.363,0.039
11/26/2023 22:24:16.420,0.68,-1.266,-0.914
11/26/2023 22:24:16.430,0.762,0.496,-1.555
11/26/2023 22:24:16.440,0.863,0.863,-1.563
11/26/2023 22:24:16.450,0.621,0.68,-0.777
11/26/2023 22:24:16.460,0.094,0.02,0.203
11/26/2023 22:24:16.470,-0.332,-0.719,0.598
11/26/2023 22:24:16.480,-0.508,-1.063,0.543
11/26/2023 22:24:16.490,-0.465,-0.914,0.34
11/26/2023 22:24:16.500,-0.27,-0.449,0.145
11/26/2023 22:24:16.510,-0.027,0.059,-0.004
11/26/2023 22:24:16.520,0.125,0.426,-0.195
11/26/2023 22:24:16.530,0.156,0.613,-0.375
11/26/2023 22:24:16.540,0.074,0.652,-0.473
11/26/2023 22:24:16.550,0,0.613,-0.484
11/26/2023 22:24:16.560,0.012,0.586,-0.422
11/26/2023 22:24:16.570,0.059,0.574,-0.383
11/26/2023 22:24:16.580,0.117,0.555,-0.367
11/26/2023 22:24:16.590,0.16,0.496,-0.316
11/26/2023 22:24:16.600,0.188,0.367,-0.195
11/26/2023 22:24:16.610,0.215,0.18,-0.031
11/26/2023 22:24:16.620,0.23,-0.031,0.156
11/26/2023 22:24:16.630,0.254,-0.199,0.254
11/26/2023 22:24:16.640,0.27,-0.297,0.254
11/26/2023 22:24:16.650,0.289,-0.328,0.25
11/26/2023 22:24:16.660,0.273,-0.355,0.277
11/26/2023 22:24:16.670,0.164,-0.391,0.281
11/26/2023 22:24:16.680,0.008,-0.438,0.27
11/26/2023 22:24:16.690,-0.125,-0.465,0.203
11/26/2023 22:24:16.700,-0.219,-0.5,0.059
11/26/2023 22:24:16.710,-0.293,-0.574,-0.043
11/26/2023 22:24:16.720,-0.32,-0.668,0.074
11/26/2023 22:24:16.730,-0.293,-0.754,0.348
11/26/2023 22:24:16.740,-0.305,-0.918,0.566
11/26/2023 22:24:16.750,-0.418,-1.301,0.434
11/26/2023 22:24:16.760,-0.941,-2.871,-0.324
11/26/2023 22:24:16.770,-1.664,-6.598,-0.563
11/26/2023 22:24:16.780,-1.313,-8,-0.766
11/26/2023 22:24:16.790,-0.34,-8,-0.477
11/26/2023 22:24:16.800,0.527,-5.215,0.426
11/26/2023 22:24:16.810,0.941,-1.801,-0.168
11/26/2023 22:24:16.820,1.32,0.051,-0.738
11/26/2023 22:24:16.830,1.441,0.438,-0.848
11/26/2023 22:24:16.840,1.094,0.176,-0.324
11/26/2023 22:24:16.850,0.461,-0.484,0.297
11/26/2023 22:24:16.860,-0.012,-0.992,0.613
11/26/2023 22:24:16.870,-0.188,-1.102,0.566
11/26/2023 22:24:16.880,-0.223,-0.891,0.246
11/26/2023 22:24:16.890,-0.262,-0.535,-0.121
11/26/2023 22:24:16.900,-0.305,-0.18,-0.332
11/26/2023 22:24:16.910,-0.289,0.117,-0.414
11/26/2023 22:24:16.920,-0.203,0.313,-0.418
11/26/2023 22:24:16.930,-0.078,0.418,-0.379
11/26/2023 22:24:16.940,0.004,0.445,-0.352
11/26/2023 22:24:16.950,0.059,0.445,-0.355
11/26/2023 22:24:16.960,0.094,0.477,-0.363
11/26/2023 22:24:16.970,0.152,0.539,-0.355
11/26/2023 22:24:16.980,0.254,0.602,-0.328
11/26/2023 22:24:16.990,0.371,0.602,-0.25
11/26/2023 22:24:17.000,0.445,0.527,-0.141
11/26/2023 22:24:17.010,0.441,0.375,-0.02
11/26/2023 22:24:17.020,0.363,0.199,0.105
11/26/2023 22:24:17.030,0.246,0.031,0.219
11/26/2023 22:24:17.040,0.141,-0.113,0.262
11/26/2023 22:24:17.050,0.074,-0.195,0.246
11/26/2023 22:24:17.060,0.016,-0.242,0.207
11/26/2023 22:24:17.070,-0.043,-0.352,0.133
11/26/2023 22:24:17.080,-0.074,-0.535,0.18
11/26/2023 22:24:17.090,-0.059,-0.754,0.387
11/26/2023 22:24:17.100,-0.004,-0.887,0.668
11/26/2023 22:24:17.110,0.09,-0.965,0.809
11/26/2023 22:24:17.120,0.133,-1.215,0.504
11/26/2023 22:24:17.130,-0.195,-2.66,-0.605
11/26/2023 22:24:17.140,-1.223,-6.418,-0.344
11/26/2023 22:24:17.150,-1.523,-8,-0.711
11/26/2023 22:24:17.160,-0.59,-7.828,-0.637
11/26/2023 22:24:17.170,0.313,-4.992,0.652
11/26/2023 22:24:17.180,0.273,-2.066,0.168
11/26/2023 22:24:17.190,0.266,-0.484,-0.746
11/26/2023 22:24:17.200,0.535,0.043,-0.984
11/26/2023 22:24:17.210,0.543,-0.207,-0.41
11/26/2023 22:24:17.220,0.246,-0.789,0.348
11/26/2023 22:24:17.230,-0.121,-1.266,0.637
11/26/2023 22:24:17.240,-0.344,-1.285,0.531
11/26/2023 22:24:17.250,-0.465,-0.934,0.262
11/26/2023 22:24:17.260,-0.504,-0.426,0.02
11/26/2023 22:24:17.270,-0.426,0.051,-0.07
11/26/2023 22:24:17.280,-0.234,0.375,-0.07
11/26/2023 22:24:17.290,-0.031,0.512,-0.086
11/26/2023 22:24:17.300,0.109,0.535,-0.156
11/26/2023 22:24:17.310,0.16,0.488,-0.289
11/26/2023 22:24:17.320,0.188,0.492,-0.402
11/26/2023 22:24:17.330,0.238,0.578,-0.496
11/26/2023 22:24:17.340,0.285,0.68,-0.598
11/26/2023 22:24:17.350,0.313,0.715,-0.637
11/26/2023 22:24:17.360,0.324,0.637,-0.523
11/26/2023 22:24:17.370,0.32,0.449,-0.266
11/26/2023 22:24:17.380,0.281,0.188,0.02
11/26/2023 22:24:17.390,0.227,-0.078,0.242
11/26/2023 22:24:17.400,0.148,-0.27,0.355
11/26/2023 22:24:17.410,0.063,-0.352,0.379
11/26/2023 22:24:17.420,0,-0.355,0.363
11/26/2023 22:24:17.430,-0.023,-0.34,0.355
11/26/2023 22:24:17.440,-0.027,-0.398,0.371
11/26/2023 22:24:17.450,-0.047,-0.563,0.34
11/26/2023 22:24:17.460,-0.027,-0.734,0.211
11/26/2023 22:24:17.470,0.137,-0.887,0.348
11/26/2023 22:24:17.480,0.367,-1.09,0.711
11/26/2023 22:24:17.490,0.508,-1.391,0.652
11/26/2023 22:24:17.500,0.309,-2.262,-0.316
11/26/2023 22:24:17.510,-1.098,-5.68,-1.125
11/26/2023 22:24:17.520,-1.793,-8,-1.27
11/26/2023 22:24:17.530,-0.883,-8,-0.855
11/26/2023 22:24:17.540,0.336,-6.117,0.625
11/26/2023 22:24:17.550,0.723,-2.602,0.574
11/26/2023 22:24:17.560,0.469,-0.375,-0.531
11/26/2023 22:24:17.570,0.391,0.363,-1.105
11/26/2023 22:24:17.580,0.402,0.266,-0.688
11/26/2023 22:24:17.590,0.184,-0.332,0.164
11/26/2023 22:24:17.600,-0.203,-1.016,0.598
11/26/2023 22:24:17.610,-0.508,-1.297,0.523
11/26/2023 22:24:17.620,-0.645,-1.09,0.262
11/26/2023 22:24:17.630,-0.578,-0.613,0.004
11/26/2023 22:24:17.640,-0.363,-0.09,-0.109
11/26/2023 22:24:17.650,-0.141,0.32,-0.16
11/26/2023 22:24:17.660,-0.012,0.551,-0.258
11/26/2023 22:24:17.670,0.031,0.621,-0.383
11/26/2023 22:24:17.680,0.098,0.625,-0.461
11/26/2023 22:24:17.690,0.203,0.613,-0.492
11/26/2023 22:24:17.700,0.32,0.633,-0.496
11/26/2023 22:24:17.710,0.387,0.637,-0.516
11/26/2023 22:24:17.720,0.41,0.559,-0.488
11/26/2023 22:24:17.730,0.41,0.426,-0.348
11/26/2023 22:24:17.740,0.418,0.27,-0.148
11/26/2023 22:24:17.750,0.418,0.102,0.043
11/26/2023 22:24:17.760,0.398,-0.051,0.176
11/26/2023 22:24:17.770,0.34,-0.164,0.227
11/26/2023 22:24:17.780,0.246,-0.25,0.219
11/26/2023 22:24:17.790,0.152,-0.285,0.223
11/26/2023 22:24:17.800,0.07,-0.316,0.27
11/26/2023 22:24:17.810,0.008,-0.355,0.285
11/26/2023 22:24:17.820,-0.023,-0.445,0.211
11/26/2023 22:24:17.830,-0.031,-0.563,0.086
11/26/2023 22:24:17.840,-0.004,-0.691,-0.008
11/26/2023 22:24:17.850,0.047,-0.859,0.207
11/26/2023 22:24:17.860,0.102,-1.055,0.734
11/26/2023 22:24:17.870,0.055,-1.328,0.691
11/26/2023 22:24:17.880,-0.328,-2.379,-0.34
11/26/2023 22:24:17.890,-1.449,-5.957,-1.078
11/26/2023 22:24:17.900,-1.793,-8,-1.164
11/26/2023 22:24:17.910,-0.863,-8,-0.852
11/26/2023 22:24:17.920,0.422,-6.125,0.5
11/26/2023 22:24:17.930,0.727,-2.504,0.262
11/26/2023 22:24:17.940,0.621,-0.262,-0.684
11/26/2023 22:24:17.950,0.699,0.414,-1.184
11/26/2023 22:24:17.960,0.691,0.32,-0.789
11/26/2023 22:24:17.970,0.41,-0.16,-0.074
11/26/2023 22:24:17.980,-0.008,-0.723,0.406
11/26/2023 22:24:17.990,-0.359,-1,0.574
11/26/2023 22:24:18.000,-0.52,-0.898,0.508
11/26/2023 22:24:18.010,-0.477,-0.523,0.309
11/26/2023 22:24:18.020,-0.363,-0.109,0.082
11/26/2023 22:24:18.030,-0.266,0.199,-0.117
11/26/2023 22:24:18.040,-0.176,0.391,-0.273
11/26/2023 22:24:18.050,-0.086,0.477,-0.328
11/26/2023 22:24:18.060,-0.02,0.465,-0.355
11/26/2023 22:24:18.070,0.066,0.41,-0.387
11/26/2023 22:24:18.080,0.145,0.371,-0.445
11/26/2023 22:24:18.090,0.211,0.379,-0.492
11/26/2023 22:24:18.100,0.262,0.395,-0.477
11/26/2023 22:24:18.110,0.297,0.355,-0.359
11/26/2023 22:24:18.120,0.313,0.254,-0.152
11/26/2023 22:24:18.130,0.277,0.113,0.043
11/26/2023 22:24:18.140,0.207,-0.023,0.164
11/26/2023 22:24:18.150,0.121,-0.102,0.207
11/26/2023 22:24:18.160,0.059,-0.113,0.145
11/26/2023 22:24:18.170,0.031,-0.094,0.039
11/26/2023 22:24:18.180,0.035,-0.098,0.004
11/26/2023 22:24:18.190,0.063,-0.129,0.066
11/26/2023 22:24:18.200,0.082,-0.215,0.203
11/26/2023 22:24:18.210,0.066,-0.367,0.324
11/26/2023 22:24:18.220,0.027,-0.559,0.344
11/26/2023 22:24:18.230,-0.031,-0.727,0.266
11/26/2023 22:24:18.240,-0.082,-0.813,0.137
11/26/2023 22:24:18.250,-0.121,-0.898,0.184
11/26/2023 22:24:18.260,-0.219,-1.184,0.422
11/26/2023 22:24:18.270,-0.441,-1.824,0.512
11/26/2023 22:24:18.280,-0.699,-3.133,0.121
11/26/2023 22:24:18.290,-0.82,-5.344,-0.23
11/26/2023 22:24:18.300,-0.59,-6.844,-0.031
11/26/2023 22:24:18.310,-0.277,-6.43,0.473
11/26/2023 22:24:18.320,-0.012,-3.977,0.723
11/26/2023 22:24:18.330,-0.055,-1.598,0.102
11/26/2023 22:24:18.340,-0.043,-0.176,-0.352
11/26/2023 22:24:18.350,0.188,0.277,-0.133
11/26/2023 22:24:18.360,0.313,0.148,0.313
11/26/2023 22:24:18.370,0.199,-0.199,0.578
11/26/2023 22:24:18.380,-0.008,-0.414,0.609
11/26/2023 22:24:18.390,-0.141,-0.43,0.504
11/26/2023 22:24:18.400,-0.18,-0.332,0.336
11/26/2023 22:24:18.410,-0.176,-0.234,0.137
11/26/2023 22:24:18.420,-0.211,-0.234,-0.027
11/26/2023 22:24:18.430,-0.246,-0.332,-0.102
11/26/2023 22:24:18.440,-0.223,-0.48,-0.078
11/26/2023 22:24:18.450,-0.141,-0.637,-0.031
11/26/2023 22:24:18.460,-0.055,-0.758,-0.016
11/26/2023 22:24:18.470,0.02,-0.836,-0.027
11/26/2023 22:24:18.480,0.094,-0.875,-0.027
11/26/2023 22:24:18.490,0.168,-0.906,-0.012
11/26/2023 22:24:18.500,0.227,-0.934,0.012
11/26/2023 22:24:18.510,0.301,-0.949,0.043
11/26/2023 22:24:18.520,0.367,-0.945,0.063
11/26/2023 22:24:18.530,0.418,-0.934,0.102
11/26/2023 22:24:18.540,0.445,-0.922,0.164
11/26/2023 22:24:18.550,0.438,-0.926,0.277
11/26/2023 22:24:18.560,0.375,-0.953,0.391
11/26/2023 22:24:18.570,0.262,-1.008,0.453
11/26/2023 22:24:18.580,0.117,-1.043,0.418
11/26/2023 22:24:18.590,-0.035,-1.078,0.352
11/26/2023 22:24:18.600,-0.168,-1.109,0.309
11/26/2023 22:24:18.610,-0.285,-1.16,0.277
11/26/2023 22:24:18.620,-0.383,-1.223,0.254
11/26/2023 22:24:18.630,-0.469,-1.289,0.238
11/26/2023 22:24:18.640,-0.52,-1.336,0.246
11/26/2023 22:24:18.650,-0.516,-1.344,0.254
11/26/2023 22:24:18.660,-0.461,-1.301,0.281
11/26/2023 22:24:18.670,-0.371,-1.219,0.309
11/26/2023 22:24:18.680,-0.281,-1.109,0.332
11/26/2023 22:24:18.690,-0.195,-1,0.344
11/26/2023 22:24:18.700,-0.113,-0.914,0.348
11/26/2023 22:24:18.710,-0.051,-0.84,0.352
11/26/2023 22:24:18.720,-0.012,-0.777,0.344
11/26/2023 22:24:18.730,-0.016,-0.723,0.32
11/26/2023 22:24:18.740,-0.035,-0.676,0.293
11/26/2023 22:24:18.750,-0.063,-0.641,0.285
11/26/2023 22:24:18.760,-0.09,-0.641,0.293
11/26/2023 22:24:18.770,-0.121,-0.672,0.297
11/26/2023 22:24:18.780,-0.148,-0.738,0.309
11/26/2023 22:24:18.790,-0.168,-0.82,0.332
11/26/2023 22:24:18.800,-0.176,-0.902,0.359
11/26/2023 22:24:18.810,-0.172,-0.98,0.367
11/26/2023 22:24:18.820,-0.164,-1.055,0.371
11/26/2023 22:24:18.830,-0.137,-1.117,0.379
11/26/2023 22:24:18.840,-0.105,-1.164,0.395
11/26/2023 22:24:18.850,-0.051,-1.188,0.43
11/26/2023 22:24:18.860,-0.004,-1.195,0.477
11/26/2023 22:24:18.870,0.043,-1.16,0.504
11/26/2023 22:24:18.880,0.07,-1.09,0.504
11/26/2023 22:24:18.890,0.082,-1,0.5
11/26/2023 22:24:18.900,0.094,-0.91,0.504
11/26/2023 22:24:18.910,0.09,-0.844,0.52
11/26/2023 22:24:18.920,0.063,-0.801,0.527
11/26/2023 22:24:18.930,0.008,-0.777,0.539
11/26/2023 22:24:18.940,-0.063,-0.766,0.559
11/26/2023 22:24:18.950,-0.137,-0.762,0.578
11/26/2023 22:24:18.960,-0.203,-0.758,0.578
11/26/2023 22:24:18.970,-0.254,-0.762,0.496
11/26/2023 22:24:18.980,-0.27,-0.789,0.352
11/26/2023 22:24:18.990,-0.262,-0.859,0.184
11/26/2023 22:24:19.000,-0.258,-0.992,0.082
11/26/2023 22:24:19.010,-0.234,-1.18,0.047
11/26/2023 22:24:19.020,-0.199,-1.379,0.023
11/26/2023 22:24:19.030,-0.156,-1.602,0.031
11/26/2023 22:24:19.040,-0.125,-1.816,0.082
11/26/2023 22:24:19.050,-0.098,-1.898,0.133
11/26/2023 22:24:19.060,-0.082,-1.77,0.141
11/26/2023 22:24:19.070,-0.063,-1.477,0.117
11/26/2023 22:24:19.080,-0.008,-1.121,0.113
11/26/2023 22:24:19.090,0.066,-0.797,0.148
11/26/2023 22:24:19.100,0.094,-0.563,0.211
11/26/2023 22:24:19.110,0.07,-0.43,0.27
11/26/2023 22:24:19.120,0.023,-0.406,0.309
11/26/2023 22:24:19.130,-0.023,-0.469,0.328
11/26/2023 22:24:19.140,-0.066,-0.586,0.316
11/26/2023 22:24:19.150,-0.117,-0.73,0.277
11/26/2023 22:24:19.160,-0.141,-0.863,0.227
11/26/2023 22:24:19.170,-0.152,-0.973,0.18
11/26/2023 22:24:19.180,-0.145,-1.066,0.16
11/26/2023 22:24:19.190,-0.117,-1.141,0.172
11/26/2023 22:24:19.200,-0.086,-1.184,0.211
11/26/2023 22:24:19.210,-0.059,-1.207,0.25
11/26/2023 22:24:19.220,-0.035,-1.191,0.297
11/26/2023 22:24:19.230,-0.004,-1.137,0.336
11/26/2023 22:24:19.240,0.012,-1.063,0.367
11/26/2023 22:24:19.250,0,-0.984,0.367
11/26/2023 22:24:19.260,-0.039,-0.914,0.352
11/26/2023 22:24:19.270,-0.09,-0.859,0.316
11/26/2023 22:24:19.280,-0.16,-0.828,0.277
11/26/2023 22:24:19.290,-0.223,-0.805,0.246
11/26/2023 22:24:19.300,-0.281,-0.793,0.227
11/26/2023 22:24:19.310,-0.336,-0.797,0.219
11/26/2023 22:24:19.320,-0.367,-0.816,0.219
11/26/2023 22:24:19.330,-0.387,-0.844,0.227
11/26/2023 22:24:19.340,-0.379,-0.863,0.238
11/26/2023 22:24:19.350,-0.348,-0.891,0.262
11/26/2023 22:24:19.360,-0.293,-0.91,0.313
11/26/2023 22:24:19.370,-0.227,-0.938,0.359
11/26/2023 22:24:19.380,-0.172,-0.957,0.383
11/26/2023 22:24:19.390,-0.121,-0.973,0.398
11/26/2023 22:24:19.400,-0.086,-0.988,0.41
11/26/2023 22:24:19.410,-0.063,-1.004,0.402
11/26/2023 22:24:19.420,-0.059,-1.027,0.395
11/26/2023 22:24:19.430,-0.066,-1.047,0.395
11/26/2023 22:24:19.440,-0.078,-1.066,0.402
11/26/2023 22:24:19.450,-0.109,-1.09,0.41
11/26/2023 22:24:19.460,-0.152,-1.09,0.41
11/26/2023 22:24:19.470,-0.184,-1.082,0.402
11/26/2023 22:24:19.480,-0.184,-1.047,0.41
11/26/2023 22:24:19.490,-0.207,-1.008,0.391
11/26/2023 22:24:19.500,-0.273,-0.977,0.316
11/26/2023 22:24:19.510,-0.316,-0.934,0.254
11/26/2023 22:24:19.520,-0.316,-0.887,0.227
11/26/2023 22:24:19.530,-0.289,-0.855,0.262
11/26/2023 22:24:19.540,-0.266,-0.848,0.332
11/26/2023 22:24:19.550,-0.238,-0.859,0.395
11/26/2023 22:24:19.560,-0.172,-0.867,0.418
11/26/2023 22:24:19.570,-0.047,-0.891,0.402
11/26/2023 22:24:19.580,0.035,-0.938,0.383
11/26/2023 22:24:19.590,0.047,-1.004,0.313
11/26/2023 22:24:19.600,0.059,-1.082,0.23
11/26/2023 22:24:19.610,0.105,-1.137,0.191
11/26/2023 22:24:19.620,0.141,-1.133,0.16
11/26/2023 22:24:19.630,0.133,-1.07,0.074
11/26/2023 22:24:19.640,0.102,-0.988,-0.004
11/26/2023 22:24:19.650,0.078,-0.945,0.027
11/26/2023 22:24:19.660,0.09,-0.957,0.121
11/26/2023 22:24:19.670,0.137,-0.98,0.199
11/26/2023 22:24:19.680,0.148,-1,0.211
11/26/2023 22:24:19.690,0.105,-1.004,0.188
11/26/2023 22:24:19.700,0.059,-0.992,0.199
11/26/2023 22:24:19.710,0.035,-0.961,0.258
11/26/2023 22:24:19.720,0.012,-0.914,0.313
11/26/2023 22:24:19.730,-0.047,-0.871,0.34
11/26/2023 22:24:19.740,-0.117,-0.844,0.344
11/26/2023 22:24:19.750,-0.172,-0.852,0.34
11/26/2023 22:24:19.760,-0.223,-0.918,0.324
11/26/2023 22:24:19.770,-0.262,-1.016,0.301
11/26/2023 22:24:19.780,-0.313,-1.148,0.273
11/26/2023 22:24:19.790,-0.336,-1.273,0.246
11/26/2023 22:24:19.800,-0.316,-1.371,0.242
11/26/2023 22:24:19.810,-0.258,-1.418,0.27
11/26/2023 22:24:19.820,-0.18,-1.391,0.305
11/26/2023 22:24:19.830,-0.117,-1.316,0.332
11/26/2023 22:24:19.840,-0.066,-1.203,0.344
11/26/2023 22:24:19.850,-0.02,-1.074,0.348
11/26/2023 22:24:19.860,0.023,-0.949,0.352
11/26/2023 22:24:19.870,0.047,-0.836,0.352
11/26/2023 22:24:19.880,0.055,-0.742,0.336
11/26/2023 22:24:19.890,0.047,-0.68,0.328
11/26/2023 22:24:19.900,0.02,-0.656,0.316
11/26/2023 22:24:19.910,-0.008,-0.652,0.313
11/26/2023 22:24:19.920,-0.027,-0.676,0.316
11/26/2023 22:24:19.930,-0.039,-0.723,0.328
11/26/2023 22:24:19.940,-0.047,-0.781,0.355
11/26/2023 22:24:19.950,-0.051,-0.852,0.371
11/26/2023 22:24:19.960,-0.047,-0.918,0.383
11/26/2023 22:24:19.970,-0.047,-0.969,0.387
11/26/2023 22:24:19.980,-0.039,-1.012,0.402
11/26/2023 22:24:19.990,-0.031,-1.055,0.402
11/26/2023 22:24:20.000,-0.043,-1.086,0.395
11/26/2023 22:24:20.010,-0.043,-1.105,0.391
11/26/2023 22:24:20.020,-0.043,-1.102,0.383
11/26/2023 22:24:20.030,-0.039,-1.078,0.375
11/26/2023 22:24:20.040,-0.023,-1.031,0.371
11/26/2023 22:24:20.050,-0.012,-0.977,0.359
11/26/2023 22:24:20.060,-0.008,-0.934,0.352
11/26/2023 22:24:20.070,0,-0.887,0.34
11/26/2023 22:24:20.080,0,-0.844,0.32
11/26/2023 22:24:20.090,0.016,-0.82,0.301
11/26/2023 22:24:20.100,0.043,-0.809,0.293
11/26/2023 22:24:20.110,0.07,-0.82,0.285
11/26/2023 22:24:20.120,0.086,-0.863,0.277
11/26/2023 22:24:20.130,0.082,-0.922,0.258
11/26/2023 22:24:20.140,0.066,-0.996,0.242
11/26/2023 22:24:20.150,0.043,-1.074,0.227
11/26/2023 22:24:20.160,0.023,-1.156,0.23
11/26/2023 22:24:20.170,-0.004,-1.223,0.242
11/26/2023 22:24:20.180,-0.027,-1.25,0.258
11/26/2023 22:24:20.190,-0.051,-1.211,0.238
11/26/2023 22:24:20.200,-0.066,-1.133,0.238
11/26/2023 22:24:20.210,-0.066,-1.055,0.27
11/26/2023 22:24:20.220,-0.055,-0.973,0.309
11/26/2023 22:24:20.230,-0.047,-0.906,0.324
11/26/2023 22:24:20.240,-0.043,-0.859,0.332
11/26/2023 22:24:20.250,-0.043,-0.824,0.324
11/26/2023 22:24:20.260,-0.051,-0.801,0.301
11/26/2023 22:24:20.270,-0.063,-0.805,0.277
11/26/2023 22:24:20.280,-0.063,-0.813,0.258
11/26/2023 22:24:20.290,-0.059,-0.844,0.254
11/26/2023 22:24:20.300,-0.059,-0.895,0.254
11/26/2023 22:24:20.310,-0.066,-0.949,0.25
11/26/2023 22:24:20.320,-0.074,-1.004,0.262
11/26/2023 22:24:20.330,-0.078,-1.051,0.258
11/26/2023 22:24:20.340,-0.094,-1.074,0.242
11/26/2023 22:24:20.350,-0.105,-1.07,0.223
11/26/2023 22:24:20.360,-0.102,-1.051,0.215
11/26/2023 22:24:20.370,-0.102,-1.016,0.215
11/26/2023 22:24:20.380,-0.078,-1.074,0.258
11/26/2023 22:24:20.390,-0.09,-1.191,0.328
11/26/2023 22:24:20.400,-0.152,-1.184,0.305
11/26/2023 22:24:20.410,-0.164,-1.066,0.297
11/26/2023 22:24:20.420,-0.02,-0.934,0.285
11/26/2023 22:24:20.430,0.145,-0.855,0.313
11/26/2023 22:24:20.440,-0.059,-0.902,0.273
11/26/2023 22:24:20.450,-0.105,-0.875,0.109
11/26/2023 22:24:20.460,-0.109,-0.859,0.191
11/26/2023 22:24:20.470,0.055,-0.898,0.422
11/26/2023 22:24:20.480,-0.043,-1.027,0.242
11/26/2023 22:24:20.490,-0.133,-1,0.152
11/26/2023 22:24:20.500,-0.105,-0.949,0.223
11/26/2023 22:24:20.510,-0.043,-0.957,0.348
11/26/2023 22:24:20.520,-0.023,-0.961,0.383
11/26/2023 22:24:20.530,-0.012,-0.918,0.316
11/26/2023 22:24:20.540,0.012,-0.844,0.383
11/26/2023 22:24:20.550,0.051,-0.848,0.398
11/26/2023 22:24:20.560,0.012,-0.941,0.41
11/26/2023 22:24:20.570,-0.066,-1.082,0.395
11/26/2023 22:24:20.580,-0.078,-1.07,0.387
11/26/2023 22:24:20.590,-0.055,-0.988,0.359
11/26/2023 22:24:20.600,-0.004,-0.957,0.375
11/26/2023 22:24:20.610,0.016,-0.945,0.355
11/26/2023 22:24:20.620,0.016,-0.922,0.324
11/26/2023 22:24:20.630,0.004,-0.938,0.293
11/26/2023 22:24:20.640,-0.004,-0.945,0.266
11/26/2023 22:24:20.650,0.035,-0.926,0.254
11/26/2023 22:24:20.660,0.035,-0.957,0.25
11/26/2023 22:24:20.670,0.02,-0.961,0.234
11/26/2023 22:24:20.680,0.02,-0.965,0.223
11/26/2023 22:24:20.690,0.027,-0.922,0.18
11/26/2023 22:24:20.700,0.035,-0.914,0.199
11/26/2023 22:24:20.710,0,-0.945,0.25
11/26/2023 22:24:20.720,-0.055,-1.012,0.273
11/26/2023 22:24:20.730,-0.086,-1.051,0.238
11/26/2023 22:24:20.740,-0.035,-1.051,0.277
11/26/2023 22:24:20.750,-0.098,-1.09,0.242
11/26/2023 22:24:20.760,-0.031,-1.086,0.297
11/26/2023 22:24:20.770,-0.004,-1.008,0.309
11/26/2023 22:24:20.780,-0.039,-1.02,0.309
11/26/2023 22:24:20.790,-0.039,-1.02,0.313
11/26/2023 22:24:20.800,-0.066,-1,0.285
11/26/2023 22:24:20.810,-0.082,-1.016,0.293
11/26/2023 22:24:20.820,-0.078,-1.035,0.289
11/26/2023 22:24:20.830,-0.074,-1,0.273
11/26/2023 22:24:20.840,-0.059,-0.961,0.246
11/26/2023 22:24:20.850,-0.07,-0.992,0.246
11/26/2023 22:24:20.860,-0.031,-0.922,0.219
11/26/2023 22:24:20.870,0.051,-0.895,0.227
11/26/2023 22:24:20.880,-0.023,-0.973,0.176
11/26/2023 22:24:20.890,-0.055,-1.016,0.152
11/26/2023 22:24:20.900,-0.031,-0.98,0.156
11/26/2023 22:24:20.910,-0.051,-0.949,0.117
11/26/2023 22:24:20.920,-0.047,-0.992,0.16
11/26/2023 22:24:20.930,-0.051,-0.965,0.133
11/26/2023 22:24:20.940,-0.039,-1.016,0.168
11/26/2023 22:24:20.950,-0.016,-0.938,0.113
11/26/2023 22:24:20.960,0.016,-0.988,0.121
11/26/2023 22:24:20.970,0.02,-0.996,0.102
11/26/2023 22:24:20.980,0.016,-1.039,0.117
11/26/2023 22:24:20.990,-0.008,-1.035,0.098
11/26/2023 22:24:21.000,-0.039,-1.047,0.121
11/26/2023 22:24:21.010,-0.027,-1.035,0.117
11/26/2023 22:24:21.020,-0.023,-1.02,0.164
11/26/2023 22:24:21.030,-0.023,-1.027,0.164
11/26/2023 22:24:21.040,-0.035,-1.035,0.164
11/26/2023 22:24:21.050,-0.047,-1.012,0.152
11/26/2023 22:24:21.060,-0.055,-1.047,0.18
11/26/2023 22:24:21.070,-0.051,-1.004,0.168
11/26/2023 22:24:21.080,-0.059,-1,0.191
11/26/2023 22:24:21.090,-0.055,-1.02,0.172
11/26/2023 22:24:21.100,-0.074,-1.008,0.184
11/26/2023 22:24:21.110,-0.082,-1.043,0.164
11/26/2023 22:24:21.120,-0.055,-0.957,0.109
11/26/2023 22:24:21.130,-0.039,-1.035,0.172
11/26/2023 22:24:21.140,-0.047,-0.988,0.223
11/26/2023 22:24:21.150,-0.074,-1.043,0.121
11/26/2023 22:24:21.160,-0.063,-1.004,0.133
11/26/2023 22:24:21.170,-0.043,-1.051,0.148
11/26/2023 22:24:21.180,-0.031,-1.031,0.141
11/26/2023 22:24:21.190,-0.012,-0.98,0.09
11/26/2023 22:24:21.200,-0.012,-1.078,0.18
11/26/2023 22:24:21.210,-0.023,-1.047,0.152
11/26/2023 22:24:21.220,0,-0.996,0.129
11/26/2023 22:24:21.230,0.09,-0.93,0.504
11/26/2023 22:24:21.240,-0.023,-1.109,0.07
11/26/2023 22:24:21.250,-0.086,-1.027,0.102
11/26/2023 22:24:21.260,-0.004,-0.98,0.18
11/26/2023 22:24:21.270,-0.004,-1.012,0.18
11/26/2023 22:24:21.280,-0.031,-0.996,0.18
11/26/2023 22:24:21.290,-0.043,-1.031,0.125
11/26/2023 22:24:21.300,-0.023,-0.996,0.156
11/26/2023 22:24:21.310,-0.012,-1,0.164
11/26/2023 22:24:21.320,-0.027,-1.008,0.164
11/26/2023 22:24:21.330,-0.047,-1.016,0.16
11/26/2023 22:24:21.340,-0.043,-1.027,0.168
11/26/2023 22:24:21.350,-0.035,-1.031,0.18
11/26/2023 22:24:21.360,-0.02,-1.039,0.184
11/26/2023 22:24:21.370,0.004,-1.043,0.199
11/26/2023 22:24:21.380,0.023,-1.055,0.215
11/26/2023 22:24:21.390,0.023,-1.047,0.25
11/26/2023 22:24:21.400,0.012,-1.016,0.277
11/26/2023 22:24:21.410,-0.012,-0.98,0.309
11/26/2023 22:24:21.420,-0.023,-0.941,0.328
11/26/2023 22:24:21.430,-0.02,-0.93,0.34
11/26/2023 22:24:21.440,0.004,-0.93,0.344
11/26/2023 22:24:21.450,0.027,-0.945,0.367
11/26/2023 22:24:21.460,0.051,-0.922,0.383
11/26/2023 22:24:21.470,0.008,-1.008,0.313
11/26/2023 22:24:21.480,0.039,-0.828,0.426
11/26/2023 22:24:21.490,0.059,-0.734,0.453
11/26/2023 22:24:21.500,0.035,-0.762,0.391
11/26/2023 22:24:21.510,0.016,-0.762,0.336
11/26/2023 22:24:21.520,0.043,-0.754,0.367
11/26/2023 22:24:21.530,0.035,-0.844,0.359
11/26/2023 22:24:21.540,-0.047,-0.949,0.281
11/26/2023 22:24:21.550,-0.016,-0.969,0.344
11/26/2023 22:24:21.560,0.031,-0.969,0.414
11/26/2023 22:24:21.570,0.039,-0.891,0.461
11/26/2023 22:24:21.580,0.09,-0.973,0.527
11/26/2023 22:24:21.590,0.203,-0.813,1.059
11/26/2023 22:24:21.600,0.785,-0.25,0.906
11/26/2023 22:24:21.610,0.359,-1.617,0.367
11/26/2023 22:24:21.620,0.113,-1.121,0.477
11/26/2023 22:24:21.630,0.043,-1.098,0.398
11/26/2023 22:24:21.640,0.207,-1.035,0.484
11/26/2023 22:24:21.650,0.191,-1.031,0.512
11/26/2023 22:24:21.660,0.098,-0.875,0.473
11/26/2023 22:24:21.670,0.02,-0.926,0.43
11/26/2023 22:24:21.680,0.063,-0.953,0.465
11/26/2023 22:24:21.690,0.387,-0.41,0.703
11/26/2023 22:24:21.700,0.469,-0.734,0.684
11/26/2023 22:24:21.710,0.359,-0.645,0.719
11/26/2023 22:24:21.720,0.285,-0.625,0.723
11/26/2023 22:24:21.730,0.18,-0.656,0.684
11/26/2023 22:24:21.740,0.113,-0.781,0.598
11/26/2023 22:24:21.750,0.07,-0.949,0.527
11/26/2023 22:24:21.760,0.105,-0.898,0.578
11/26/2023 22:24:21.770,0.18,-0.801,0.648
11/26/2023 22:24:21.780,0.238,-0.707,0.699
11/26/2023 22:24:21.790,0.242,-0.586,0.691
11/26/2023 22:24:21.800,0.207,-0.504,0.629
11/26/2023 22:24:21.810,0.145,-0.418,0.563
11/26/2023 22:24:21.820,0.074,-0.383,0.477
11/26/2023 22:24:21.830,0.016,-0.441,0.363
11/26/2023 22:24:21.840,-0.039,-0.586,0.246
11/26/2023 22:24:21.850,-0.043,-0.645,0.234
11/26/2023 22:24:21.860,0.012,-0.648,0.324
11/26/2023 22:24:21.870,0.074,-0.621,0.426
11/26/2023 22:24:21.880,0.074,-0.563,0.449
11/26/2023 22:24:21.890,0.047,-0.531,0.43
11/26/2023 22:24:21.900,0.047,-0.539,0.398
11/26/2023 22:24:21.910,0.051,-0.594,0.328
11/26/2023 22:24:21.920,0.063,-0.617,0.313
11/26/2023 22:24:21.930,0.102,-0.664,0.324
11/26/2023 22:24:21.940,0.145,-0.656,0.367
11/26/2023 22:24:21.950,0.207,-0.648,0.445
11/26/2023 22:24:21.960,0.32,-0.664,0.531
11/26/2023 22:24:21.970,0.465,-0.617,0.668
11/26/2023 22:24:21.980,0.68,-0.555,0.719
11/26/2023 22:24:21.990,0.641,-0.703,0.723
11/26/2023 22:24:22.000,0.723,-0.629,0.777
11/26/2023 22:24:22.010,0.758,-0.613,0.793
11/26/2023 22:24:22.020,0.734,-0.723,0.59
11/26/2023 22:24:22.030,0.719,-0.773,0.492
11/26/2023 22:24:22.040,0.719,-0.762,0.5
11/26/2023 22:24:22.050,0.625,-0.691,0.465
11/26/2023 22:24:22.060,0.504,-0.613,0.492
11/26/2023 22:24:22.070,0.391,-0.543,0.523
11/26/2023 22:24:22.080,0.406,-0.477,0.605
11/26/2023 22:24:22.090,0.488,-0.488,0.633
11/26/2023 22:24:22.100,0.602,-0.547,0.641
11/26/2023 22:24:22.110,0.707,-0.566,0.676
11/26/2023 22:24:22.120,0.777,-0.535,0.73
11/26/2023 22:24:22.130,0.855,-0.496,0.797
11/26/2023 22:24:22.140,0.902,-0.488,0.844
11/26/2023 22:24:22.150,0.859,-0.586,0.844
11/26/2023 22:24:22.160,0.793,-0.664,0.715
11/26/2023 22:24:22.170,0.727,-0.664,0.59
11/26/2023 22:24:22.180,0.645,-0.676,0.574
11/26/2023 22:24:22.190,0.605,-0.703,0.605
11/26/2023 22:24:22.200,0.617,-0.66,0.637
11/26/2023 22:24:22.210,0.668,-0.539,0.762
11/26/2023 22:24:22.220,0.703,-0.496,0.809
11/26/2023 22:24:22.230,0.695,-0.5,0.801
11/26/2023 22:24:22.240,0.656,-0.488,0.82
11/26/2023 22:24:22.250,0.605,-0.457,0.836
11/26/2023 22:24:22.260,0.563,-0.484,0.82
11/26/2023 22:24:22.270,0.516,-0.516,0.746
11/26/2023 22:24:22.280,0.492,-0.496,0.723
11/26/2023 22:24:22.290,0.504,-0.445,0.703
11/26/2023 22:24:22.300,0.523,-0.402,0.746
11/26/2023 22:24:22.310,0.555,-0.414,0.813
11/26/2023 22:24:22.320,0.59,-0.398,0.809
11/26/2023 22:24:22.330,0.609,-0.371,0.82
11/26/2023 22:24:22.340,0.625,-0.352,0.82
11/26/2023 22:24:22.350,0.641,-0.355,0.836
11/26/2023 22:24:22.360,0.695,-0.422,0.785
11/26/2023 22:24:22.370,0.734,-0.477,0.766
11/26/2023 22:24:22.380,0.758,-0.496,0.73
11/26/2023 22:24:22.390,0.727,-0.52,0.711
11/26/2023 22:24:22.400,0.645,-0.539,0.699
11/26/2023 22:24:22.410,0.641,-0.52,0.734
11/26/2023 22:24:22.420,0.719,-0.508,0.789
11/26/2023 22:24:22.430,0.82,-0.516,0.711
11/26/2023 22:24:22.440,0.824,-0.516,0.816
11/26/2023 22:24:22.450,0.848,-0.48,0.926
11/26/2023 22:24:22.460,0.844,-0.566,0.84
11/26/2023 22:24:22.470,0.77,-0.645,0.672
11/26/2023 22:24:22.480,0.668,-0.574,0.582
11/26/2023 22:24:22.490,0.605,-0.563,0.59
11/26/2023 22:24:22.500,0.582,-0.566,0.59
11/26/2023 22:24:22.510,0.586,-0.582,0.574
11/26/2023 22:24:22.520,0.574,-0.641,0.516
11/26/2023 22:24:22.530,0.508,-0.602,0.434
11/26/2023 22:24:22.540,0.438,-0.602,0.375
11/26/2023 22:24:22.550,0.398,-0.555,0.504
11/26/2023 22:24:22.560,0.402,-0.719,0.898
11/26/2023 22:24:22.570,0.445,-0.68,0.613
11/26/2023 22:24:22.580,0.473,-0.633,0.516
11/26/2023 22:24:22.590,0.543,-0.688,0.539
11/26/2023 22:24:22.600,0.57,-0.875,0.469
11/26/2023 22:24:22.610,0.672,-0.91,0.504
11/26/2023 22:24:22.620,0.871,-0.586,0.613
11/26/2023 22:24:22.630,0.77,-0.566,0.609
11/26/2023 22:24:22.640,0.613,-0.543,0.707
11/26/2023 22:24:22.650,0.723,-0.566,0.605
11/26/2023 22:24:22.660,0.641,-0.5,0.441
11/26/2023 22:24:22.670,0.594,-0.477,0.551
11/26/2023 22:24:22.680,0.602,-0.406,0.703
11/26/2023 22:24:22.690,0.594,-0.352,0.719
11/26/2023 22:24:22.700,0.676,-0.383,0.641
11/26/2023 22:24:22.710,0.875,-0.523,0.453
11/26/2023 22:24:22.720,0.949,-0.699,0.063
11/26/2023 22:24:22.730,1.086,-0.941,0.152
11/26/2023 22:24:22.740,1.203,-1.047,0.086
11/26/2023 22:24:22.750,0.852,-1.145,0.055
11/26/2023 22:24:22.760,0.387,-1.168,-0.441
11/26/2023 22:24:22.770,0.23,-1.137,-0.523
11/26/2023 22:24:22.780,0.141,-0.992,-0.453
11/26/2023 22:24:22.790,-0.027,-0.848,-0.41
11/26/2023 22:24:22.800,-0.176,-0.742,-0.398
11/26/2023 22:24:22.810,-0.348,-0.68,-0.445
11/26/2023 22:24:22.820,-0.449,-0.664,-0.426
11/26/2023 22:24:22.830,-0.234,-0.66,-0.293
11/26/2023 22:24:22.840,0.293,-0.602,-0.078
11/26/2023 22:24:22.850,0.75,-0.48,0.145
11/26/2023 22:24:22.860,1.027,-0.332,0.363
11/26/2023 22:24:22.870,1.094,-0.199,0.488
11/26/2023 22:24:22.880,0.988,-0.16,0.48
11/26/2023 22:24:22.890,0.902,-0.254,0.363
11/26/2023 22:24:22.900,0.848,-0.465,0.105
11/26/2023 22:24:22.910,0.996,-0.645,-0.199
11/26/2023 22:24:22.920,1.211,-0.789,-0.398
11/26/2023 22:24:22.930,1.352,-0.895,-0.531
11/26/2023 22:24:22.940,1.414,-0.969,-0.648
11/26/2023 22:24:22.950,1.293,-1.02,-0.715
11/26/2023 22:24:22.960,0.941,-1.043,-0.699
11/26/2023 22:24:22.970,0.504,-1.016,-0.586
11/26/2023 22:24:22.980,0.273,-0.953,-0.379
11/26/2023 22:24:22.990,0.344,-0.938,-0.262
11/26/2023 22:24:23.000,0.488,-1.008,-0.359
11/26/2023 22:24:23.010,0.516,-1.145,-0.621
11/26/2023 22:24:23.020,0.414,-1.227,-0.75
11/26/2023 22:24:23.030,0.273,-1.223,-0.605
11/26/2023 22:24:23.040,0.109,-1.148,-0.406
11/26/2023 22:24:23.050,-0.051,-1.066,-0.223
11/26/2023 22:24:23.060,-0.129,-1.023,-0.113
11/26/2023 22:24:23.070,-0.074,-1.031,-0.121
11/26/2023 22:24:23.080,0.066,-1.043,-0.152
11/26/2023 22:24:23.090,0.141,-1.051,-0.195
11/26/2023 22:24:23.100,0.113,-1.039,-0.176
11/26/2023 22:24:23.110,0.043,-1.02,-0.113
11/26/2023 22:24:23.120,-0.027,-1.035,-0.117
11/26/2023 22:24:23.130,-0.023,-1.063,-0.184
11/26/2023 22:24:23.140,0.008,-1.105,-0.258
11/26/2023 22:24:23.150,0.039,-1.113,-0.254
11/26/2023 22:24:23.160,0.098,-1.078,-0.195
11/26/2023 22:24:23.170,0.133,-1.031,-0.09
11/26/2023 22:24:23.180,0.074,-0.996,-0.008
11/26/2023 22:24:23.190,-0.082,-0.98,0.074
11/26/2023 22:24:23.200,-0.199,-1.133,-0.043
11/26/2023 22:24:23.210,-0.508,-1.488,-0.34
11/26/2023 22:24:23.220,-0.438,-1.32,0.227
11/26/2023 22:24:23.230,0.211,-1.164,-0.07
11/26/2023 22:24:23.240,0.066,-1.352,-0.246
11/26/2023 22:24:23.250,-0.234,-1.25,-0.469
11/26/2023 22:24:23.260,-0.305,-1.012,0.188
11/26/2023 22:24:23.270,0.496,-0.887,0.105
11/26/2023 22:24:23.280,0.164,-0.945,0.176
11/26/2023 22:24:23.290,-0.031,-0.949,0.16
11/26/2023 22:24:23.300,-0.035,-0.77,0.156
11/26/2023 22:24:23.310,-0.113,-0.715,0.156
11/26/2023 22:24:23.320,-0.121,-0.77,0.121
11/26/2023 22:24:23.330,0.035,-0.988,-0.012
11/26/2023 22:24:23.340,-0.059,-1.172,-0.012
11/26/2023 22:24:23.350,0.063,-1.023,-0.02
11/26/2023 22:24:23.360,0.109,-1.145,0.086
11/26/2023 22:24:23.370,0.063,-1.086,0.102
11/26/2023 22:24:23.380,0.02,-1.043,0.09
11/26/2023 22:24:23.390,-0.004,-1.023,0.082
11/26/2023 22:24:23.400,-0.023,-1.016,0.082
11/26/2023 22:24:23.410,-0.023,-1.016,0.082
11/26/2023 22:24:23.420,-0.016,-1.012,0.086
11/26/2023 22:24:23.430,-0.016,-1.012,0.102
11/26/2023 22:24:23.440,-0.02,-1.008,0.09
11/26/2023 22:24:23.450,-0.012,-1.012,0.023
11/26/2023 22:24:23.460,-0.027,-1.023,0.004
11/26/2023 22:24:23.470,-0.027,-1.016,0
11/26/2023 22:24:23.480,-0.031,-1.016,0.008
11/26/2023 22:24:23.490,-0.027,-1.012,0.008
11/26/2023 22:24:23.500,-0.035,-1.012,0.008
11/26/2023 22:24:23.510,-0.031,-1.012,0.012
11/26/2023 22:24:23.520,-0.031,-1.012,0.012
11/26/2023 22:24:23.530,-0.023,-1.012,0.012
11/26/2023 22:24:23.540,-0.027,-1.012,0.012
11/26/2023 22:24:23.550,-0.031,-1.016,0.008
11/26/2023 22:24:23.560,-0.031,-1.012,0.016
11/26/2023 22:24:23.570,-0.023,-1.012,0.02
11/26/2023 22:24:23.580,-0.023,-1.008,0.035
11/26/2023 22:24:23.590,-0.02,-1.008,0.047
11/26/2023 22:24:23.600,-0.016,-1.008,0.047
11/26/2023 22:24:23.610,-0.016,-1.008,0.047
11/26/2023 22:24:23.620,-0.02,-1.012,0.047
11/26/2023 22:24:23.630,-0.023,-1.012,0.059
11/26/2023 22:24:23.640,-0.059,-0.996,0.074
11/26/2023 22:24:23.650,-0.008,-1.016,0.008
11/26/2023 22:24:23.660,0,-1.016,0
11/26/2023 22:24:23.670,-0.016,-1.023,0.004
11/26/2023 22:24:23.680,-0.004,-1.004,0.023
11/26/2023 22:24:23.690,-0.039,-0.992,0.02
11/26/2023 22:24:23.700,-0.023,-1.004,0.035
11/26/2023 22:24:23.710,0.004,-1.008,0.031
11/26/2023 22:24:23.720,0.008,-1.008,0.027
11/26/2023 22:24:23.730,-0.004,-1.012,0.02
11/26/2023 22:24:23.740,-0.008,-1.012,0.027
11/26/2023 22:24:23.750,-0.012,-1.012,0.031
11/26/2023 22:24:23.760,-0.008,-1.008,0.027
11/26/2023 22:24:23.770,-0.012,-1.008,0.027
11/26/2023 22:24:23.780,-0.016,-1.012,0.027
11/26/2023 22:24:23.790,-0.012,-1.012,0.023
11/26/2023 22:24:23.800,-0.016,-1.012,0.027
11/26/2023 22:24:23.810,-0.02,-1.012,0.027
11/26/2023 22:24:23.820,-0.02,-1.012,0.027
11/26/2023 22:24:23.830,-0.012,-1.012,0.027
11/26/2023 22:24:23.840,-0.008,-1.012,0.027
11/26/2023 22:24:23.850,-0.008,-1.012,0.023
11/26/2023 22:24:23.860,-0.004,-1.012,0.027
11/26/2023 22:24:23.870,-0.008,-1.012,0.027
11/26/2023 22:24:23.880,-0.012,-1.012,0.027
11/26/2023 22:24:23.890,-0.008,-1.012,0.027
11/26/2023 22:24:23.900,-0.012,-1.012,0.027
11/26/2023 22:24:23.910,-0.016,-1.012,0.027
11/26/2023 22:24:23.920,-0.012,-1.008,0.027
11/26/2023 22:24:23.930,-0.016,-1.012,0.023
11/26/2023 22:24:23.940,-0.012,-1.012,0.023
11/26/2023 22:24:23.950,-0.016,-1.016,0.027
11/26/2023 22:24:23.960,-0.012,-1.012,0.031
11/26/2023 22:24:23.970,-0.012,-1.008,0.027
11/26/2023 22:24:23.980,-0.016,-1.012,0.031
11/26/2023 22:24:23.990,-0.012,-1.016,0.027
11/26/2023 22:24:24.000,-0.02,-1.008,0.027
11/26/2023 22:24:24.010,-0.012,-1.012,0.027
11/26/2023 22:24:24.020,-0.008,-1.012,0.031
11/26/2023 22:24:24.030,-0.012,-1.012,0.031
11/26/2023 22:24:24.040,-0.012,-1.008,0.031
11/26/2023 22:24:24.050,-0.012,-1.012,0.023
11/26/2023 22:24:24.060,-0.016,-1.012,0.027
11/26/2023 22:24:24.070,-0.016,-1.012,0.023
11/26/2023 22:24:24.080,-0.016,-1.012,0.027
11/26/2023 22:24:24.090,-0.016,-1.012,0.027
11/26/2023 22:24:24.100,-0.012,-1.012,0.023
11/26/2023 22:24:24.110,-0.016,-1.012,0.027
11/26/2023 22:24:24.120,-0.016,-1.012,0.023
11/26/2023 22:24:24.130,-0.012,-1.008,0.023
11/26/2023 22:24:24.140,-0.008,-1.008,0.023
11/26/2023 22:24:24.150,-0.016,-1.012,0.027
11/26/2023 22:24:24.160,-0.012,-1.008,0.027
11/26/2023 22:24:24.170,-0.012,-1.012,0.027
11/26/2023 22:24:24.180,-0.008,-1.012,0.027
11/26/2023 22:24:24.190,-0.008,-1.012,0.027
11/26/2023 22:24:24.200,-0.012,-1.012,0.023
11/26/2023 22:24:24.210,-0.012,-1.012,0.027
11/26/2023 22:24:24.220,-0.012,-1.012,0.027
11/26/2023 22:24:24.230,-0.008,-1.016,0.031
11/26/2023 22:24:24.240,-0.008,-1.012,0.027
11/26/2023 22:24:24.250,-0.008,-1.016,0.031
11/26/2023 22:24:24.260,-0.008,-1.012,0.027
11/26/2023 22:24:24.270,-0.008,-1.012,0.027
11/26/2023 22:24:24.280,-0.016,-1.012,0.027
11/26/2023 22:24:24.290,-0.016,-1.012,0.027
11/26/2023 22:24:24.300,-0.012,-1.012,0.027
11/26/2023 22:24:24.310,-0.012,-1.008,0.027
11/26/2023 22:24:24.320,-0.016,-1.008,0.027
11/26/2023 22:24:24.330,-0.012,-1.012,0.027
11/26/2023 22:24:24.340,-0.02,-1.012,0.023
11/26/2023 22:24:24.350,-0.016,-1.008,0.023
11/26/2023 22:24:24.360,-0.012,-1.008,0.027
11/26/2023 22:24:24.370,-0.012,-1.012,0.023
11/26/2023 22:24:24.380,-0.012,-1.008,0.027
11/26/2023 22:24:24.390,-0.012,-1.008,0.027
11/26/2023 22:24:24.400,-0.012,-1.008,0.027
11/26/2023 22:24:24.410,-0.008,-1.012,0.023
11/26/2023 22:24:24.420,-0.008,-1.012,0.023
11/26/2023 22:24:24.430,-0.004,-1.016,0.02
11/26/2023 22:24:24.440,-0.008,-1.012,0.02
11/26/2023 22:24:24.450,-0.012,-1.012,0.02
11/26/2023 22:24:24.460,-0.016,-1.012,0.02
11/26/2023 22:24:24.470,-0.012,-1.008,0.023
11/26/2023 22:24:24.480,-0.016,-1.012,0.027
11/26/2023 22:24:24.490,-0.023,-1.012,0.027
11/26/2023 22:24:24.500,-0.023,-1.008,0.02
11/26/2023 22:24:24.510,-0.02,-1.012,0.027
11/26/2023 22:24:24.520,-0.012,-1.012,0.016
11/26/2023 22:24:24.530,-0.012,-1.012,0.02
11/26/2023 22:24:24.540,-0.008,-1.008,0.02
11/26/2023 22:24:24.550,-0.012,-1.004,0.027
11/26/2023 22:24:24.560,-0.016,-1.008,0.027
11/26/2023 22:24:24.570,-0.012,-1.012,0.023
11/26/2023 22:24:24.580,-0.012,-1.012,0.023
11/26/2023 22:24:24.590,-0.016,-1.012,0.027
11/26/2023 22:24:24.600,-0.012,-1.012,0.027
11/26/2023 22:24:24.610,-0.012,-1.012,0.027
11/26/2023 22:24:24.620,-0.012,-1.012,0.023
11/26/2023 22:24:24.630,-0.012,-1.012,0.02
11/26/2023 22:24:24.640,-0.016,-1.012,0.016
11/26/2023 22:24:24.650,-0.016,-1.012,0.023
11/26/2023 22:24:24.660,-0.012,-1.012,0.023
11/26/2023 22:24:24.670,-0.012,-1.012,0.027
11/26/2023 22:24:24.680,-0.008,-1.008,0.023
11/26/2023 22:24:24.690,-0.012,-1.016,0.023
11/26/2023 22:24:24.700,-0.012,-1.012,0.023
11/26/2023 22:24:24.710,-0.012,-1.008,0.023
11/26/2023 22:24:24.720,-0.016,-1.012,0.027
11/26/2023 22:24:24.730,-0.012,-1.012,0.023
11/26/2023 22:24:24.740,-0.012,-1.012,0.027
11/26/2023 22:24:24.750,-0.02,-1.012,0.02
11/26/2023 22:24:24.760,-0.02,-1.012,0.023
11/26/2023 22:24:24.770,-0.016,-1.012,0.027
11/26/2023 22:24:24.780,-0.016,-1.012,0.02
11/26/2023 22:24:24.790,-0.012,-1.012,0.02
11/26/2023 22:24:24.800,-0.016,-1.012,0.027
11/26/2023 22:24:24.810,-0.016,-1.012,0.027
11/26/2023 22:24:24.820,-0.012,-1.012,0.027
11/26/2023 22:24:24.830,-0.008,-1.012,0.027
11/26/2023 22:24:24.840,-0.012,-1.012,0.02
11/26/2023 22:24:24.850,-0.012,-1.008,0.02
11/26/2023 22:24:24.860,-0.016,-1.012,0.016
11/26/2023 22:24:24.870,-0.012,-1.012,0.02
11/26/2023 22:24:24.880,-0.016,-1.008,0.027
11/26/2023 22:24:24.890,-0.012,-1.012,0.023
11/26/2023 22:24:24.900,-0.012,-1.012,0.02
11/26/2023 22:24:24.910,-0.008,-1.012,0.023
11/26/2023 22:24:24.920,-0.012,-1.012,0.023
11/26/2023 22:24:24.930,-0.008,-1.016,0.027
11/26/2023 22:24:24.940,-0.008,-1.016,0.031
11/26/2023 22:24:24.950,-0.008,-1.012,0.027
11/26/2023 22:24:24.960,-0.016,-1.012,0.027
11/26/2023 22:24:24.970,-0.016,-1.012,0.023
11/26/2023 22:24:24.980,-0.012,-1.012,0.02
11/26/2023 22:24:24.990,-0.008,-1.012,0.023
11/26/2023 22:24:25.000,-0.008,-1.012,0.023
11/26/2023 22:24:25.010,-0.008,-1.012,0.023
11/26/2023 22:24:25.020,-0.008,-1.012,0.023
11/26/2023 22:24:25.030,-0.008,-1.012,0.023
11/26/2023 22:24:25.040,-0.008,-1.012,0.023
11/26/2023 22:24:25.050,-0.008,-1.012,0.023
11/26/2023 22:24:25.060,-0.008,-1.012,0.023
11/26/2023 22:24:25.070,-0.008,-1.012,0.023
11/26/2023 22:24:25.080,-0.008,-1.012,0.023
11/26/2023 22:24:25.090,-0.008,-1.012,0.023
11/26/2023 22:24:25.100,-0.008,-1.012,0.023
11/26/2023 22:24:25.110,-0.008,-1.012,0.023
11/26/2023 22:24:25.120,-0.008,-1.012,0.023
11/26/2023 22:24:25.130,-0.008,-1.012,0.023
11/26/2023 22:24:25.140,-0.008,-1.012,0.023
11/26/2023 22:24:25.150,-0.008,-1.012,0.023
11/26/2023 22:24:25.160,-0.008,-1.012,0.023
11/26/2023 22:24:25.170,-0.008,-1.012,0.023
11/26/2023 22:24:25.180,-0.008,-1.012,0.023
11/26/2023 22:24:25.190,-0.008,-1.012,0.023
11/26/2023 22:24:25.200,-0.008,-1.012,0.023
11/26/2023 22:24:25.210,-0.008,-1.012,0.023
11/26/2023 22:24:25.220,-0.008,-1.012,0.023
11/26/2023 22:24:25.230,-0.008,-1.012,0.023
11/26/2023 22:24:25.240,-0.008,-1.012,0.023
11/26/2023 22:24:25.250,-0.008,-1.012,0.023
11/26/2023 22:24:25.260,-0.008,-1.012,0.023
11/26/2023 22:24:25.270,-0.008,-1.012,0.023
11/26/2023 22:24:25.280,-0.008,-1.012,0.023
11/26/2023 22:24:25.290,-0.008,-1.012,0.023
11/26/2023 22:24:25.300,-0.008,-1.012,0.023
11/26/2023 22:24:25.310,-0.008,-1.012,0.023
11/26/2023 22:24:25.320,-0.008,-1.012,0.023
11/26/2023 22:24:25.330,-0.008,-1.012,0.023
11/26/2023 22:24:25.340,-0.008,-1.012,0.023
11/26/2023 22:24:25.350,-0.008,-1.012,0.023
11/26/2023 22:24:25.360,-0.008,-1.012,0.023
11/26/2023 22:24:25.370,-0.008,-1.012,0.023
11/26/2023 22:24:25.380,-0.008,-1.012,0.023
11/26/2023 22:24:25.390,-0.008,-1.012,0.023
11/26/2023 22:24:25.400,-0.008,-1.012,0.023
11/26/2023 22:24:25.410,-0.008,-1.012,0.023
11/26/2023 22:24:25.420,-0.008,-1.012,0.023
11/26/2023 22:24:25.430,-0.008,-1.012,0.023
11/26/2023 22:24:25.440,-0.008,-1.012,0.023
11/26/2023 22:24:25.450,-0.008,-1.012,0.023
11/26/2023 22:24:25.460,-0.008,-1.012,0.023
11/26/2023 22:24:25.470,-0.008,-1.012,0.023
11/26/2023 22:24:25.480,-0.008,-1.012,0.023
11/26/2023 22:24:25.490,-0.008,-1.012,0.023
11/26/2023 22:24:25.500,-0.008,-1.012,0.023
11/26/2023 22:24:25.510,-0.008,-1.012,0.023
11/26/2023 22:24:25.520,-0.008,-1.012,0.023
11/26/2023 22:24:25.530,-0.008,-1.012,0.023
11/26/2023 22:24:25.540,-0.008,-1.012,0.023
11/26/2023 22:24:25.550,-0.008,-1.012,0.023
11/26/2023 22:24:25.560,-0.008,-1.012,0.023
11/26/2023 22:24:25.570,-0.008,-1.012,0.023
11/26/2023 22:24:25.580,-0.008,-1.012,0.023
11/26/2023 22:24:25.590,-0.008,-1.012,0.023
11/26/2023 22:24:25.600,-0.008,-1.012,0.023
11/26/2023 22:24:25.610,-0.008,-1.012,0.023
11/26/2023 22:24:25.620,-0.008,-1.012,0.023
11/26/2023 22:24:25.630,-0.008,-1.012,0.023
11/26/2023 22:24:25.640,-0.008,-1.012,0.023
11/26/2023 22:24:25.650,-0.008,-1.012,0.023
11/26/2023 22:24:25.660,-0.008,-1.012,0.023
11/26/2023 22:24:25.670,-0.008,-1.012,0.023
11/26/2023 22:24:25.680,-0.008,-1.012,0.023
11/26/2023 22:24:25.690,-0.008,-1.012,0.023
11/26/2023 22:24:25.700,-0.008,-1.012,0.023
11/26/2023 22:24:25.710,-0.008,-1.012,0.023
11/26/2023 22:24:25.720,-0.008,-1.012,0.023
11/26/2023 22:24:25.730,-0.008,-1.012,0.023
11/26/2023 22:24:25.740,-0.008,-1.012,0.023
11/26/2023 22:24:25.750,-0.008,-1.012,0.023
11/26/2023 22:24:25.760,-0.008,-1.012,0.023
11/26/2023 22:24:25.770,-0.008,-1.012,0.023
11/26/2023 22:24:25.780,-0.008,-1.012,0.023
11/26/2023 22:24:25.790,-0.008,-1.012,0.023
11/26/2023 22:24:25.800,-0.008,-1.012,0.023
11/26/2023 22:24:25.810,-0.008,-1.012,0.023
11/26/2023 22:24:25.820,-0.008,-1.012,0.023
11/26/2023 22:24:25.830,-0.008,-1.012,0.023
11/26/2023 22:24:25.840,-0.008,-1.012,0.023
11/26/2023 22:24:25.850,-0.008,-1.012,0.023
11/26/2023 22:24:25.860,-0.008,-1.012,0.023
11/26/2023 22:24:25.870,-0.008,-1.012,0.023
11/26/2023 22:24:25.880,-0.008,-1.012,0.023
11/26/2023 22:24:25.890,-0.008,-1.012,0.023
11/26/2023 22:24:25.900,-0.008,-1.012,0.023
11/26/2023 22:24:25.910,-0.008,-1.012,0.023
11/26/2023 22:24:25.920,-0.008,-1.012,0.023
11/26/2023 22:24:25.930,-0.008,-1.012,0.023
11/26/2023 22:24:25.940,-0.008,-1.012,0.023
11/26/2023 22:24:25.950,-0.008,-1.012,0.023
11/26/2023 22:24:25.960,-0.008,-1.012,0.023
11/26/2023 22:24:25.970,-0.008,-1.012,0.023
11/26/2023 22:24:25.980,-0.008,-1.012,0.023
11/26/2023 22:24:25.990,-0.008,-1.012,0.023
11/26/2023 22:24:26.000,0,0,0
11/26/2023 22:24:26.010,0,0,0
11/26/2023 22:24:26.020,0,0,0
11/26/2023 22:24:26.030,0,0,0
11/26/2023 22:24:26.040,0,0,0
11/26/2023 22:24:26.050,0,0,0
11/26/2023 22:24:26.060,0,0,0
11/26/2023 22:24:26.070,0,0,0
11/26/2023 22:24:26.080,0,0,0
11/26/2023 22:24:26.090,0,0,0
11/26/2023 22:24:26.100,0,0,0
11/26/2023 22:24:26.110,0,0,0
11/26/2023 22:24:26.120,0,0,0
11/26/2023 22:24:26.130,0,0,0
11/26/2023 22:24:26.140,0,0,0
11/26/2023 22:24:26.150,0,0,0
11/26/2023 22:24:26.160,0,0,0
11/26/2023 22:24:26.170,0,0,0
11/26/2023 22:24:26.180,0,0,0
11/26/2023 22:24:26.190,0,0,0
11/26/2023 22:24:26.200,0,0,0
11/26/2023 22:24:26.210,0,0,0
11/26/2023 22:24:26.220,0,0,0
11/26/2023 22:24:26.230,0,0,0
11/26/2023 22:24:26.240,0,0,0
11/26/2023 22:24:26.250,0,0,0
11/26/2023 22:24:26.260,0,0,0
11/26/2023 22:24:26.270,0,0,0
11/26/2023 22:24:26.280,0,0,0
11/26/2023 22:24:26.290,0,0,0
11/26/2023 22:24:26.300,0,0,0
11/26/2023 22:24:26.310,0,0,0
11/26/2023 22:24:26.320,0,0,0
11/26/2023 22:24:26.330,0,0,0
11/26/2023 22:24:26.340,0,0,0
11/26/2023 22:24:26.350,0,0,0
11/26/2023 22:24:26.360,0,0,0
11/26/2023 22:24:26.370,0,0,0
11/26/2023 22:24:26.380,0,0,0
11/26/2023 22:24:26.390,0,0,0
11/26/2023 22:24:26.400,0,0,0
11/26/2023 22:24:26.410,0,0,0
11/26/2023 22:24:26.420,0,0,0
11/26/2023 22:24:26.430,0,0,0
11/26/2023 22:24:26.440,0,0,0
11/26/2023 22:24:26.450,0,0,0
11/26/2023 22:24:26.460,0,0,0
11/26/2023 22:24:26.470,0,0,0
11/26/2023 22:24:26.480,0,0,0
11/26/2023 22:24:26.490,0,0,0
11/26/2023 22:24:26.500,0,0,0
11/26/2023 22:24:26.510,0,0,0
11/26/2023 22:24:26.520,0,0,0
11/26/2023 22:24:26.530,0,0,0
11/26/2023 22:24:26.540,0,0,0
11/26/2023 22:24:26.550,0,0,0
11/26/2023 22:24:26.560,0,0,0
11/26/2023 22:24:26.570,0,0,0
11/26/2023 22:24:26.580,0,0,0
11/26/2023 22:24:26.590,0,0,0
11/26/2023 22:24:26.600,0,0,0
11/26/2023 22:24:26.610,0,0,0
11/26/2023 22:24:26.620,0,0,0
11/26/2023 22:24:26.630,0,0,0
11/26/2023 22:24:26.640,0,0,0
11/26/2023 22:24:26.650,0,0,0
11/26/2023 22:24:26.660,0,0,0
11/26/2023 22:24:26.670,0,0,0
11/26/2023 22:24:26.680,0,0,0
11/26/2023 22:24:26.690,0,0,0
11/26/2023 22:24:26.700,0,0,0
11/26/2023 22:24:26.710,0,0,0
11/26/2023 22:24:26.720,0,0,0
11/26/2023 22:24:26.730,0,0,0
11/26/2023 22:24:26.740,0,0,0
11/26/2023 22:24:26.750,0,0,0
11/26/2023 22:24:26.760,0,0,0
11/26/2023 22:24:26.770,0,0,0
11/26/2023 22:24:26.780,0,0,0
11/26/2023 22:24:26.790,0,0,0
11/26/2023 22:24:26.800,0,0,0
11/26/2023 22:24:26.810,0,0,0
11/26/2023 22:24:26.820,0,0,0
11/26/2023 22:24:26.830,0,0,0
11/26/2023 22:24:26.840,0,0,0
11/26/2023 22:24:26.850,0,0,0
11/26/2023 22:24:26.860,0,0,0
11/26/2023 22:24:26.870,0,0,0
11/26/2023 22:24:26.880,0,0,0
11/26/2023 22:24:26.890,0,0,0
11/26/2023 22:24:26.900,0,0,0
11/26/2023 22:24:26.910,0,0,0
11/26/2023 22:24:26.920,0,0,0
11/26/2023 22:24:26.930,0,0,0
11/26/2023 22:24:26.940,0,0,0
11/26/2023 22:24:26.950,0,0,0
11/26/2023 22:24:26.960,0,0,0
11/26/2023 22:24:26.970,0,0,0
11/26/2023 22:24:26.980,0,0,0
11/26/2023 22:24:26.990,0,0,0
11/26/2023 22:24:27.000,0,0,0
11/26/2023 22:24:27.010,0,0,0
11/26/2023 22:24:27.020,0,0,0
11/26/2023 22:24:27.030,0,0,0
11/26/2023 22:24:27.040,0,0,0
11/26/2023 22:24:27.050,0,0,0
11/26/2023 22:24:27.060,0,0,0
11/26/2023 22:24:27.070,0,0,0
11/26/2023 22:24:27.080,0,0,0
11/26/2023 22:24:27.090,0,0,0
11/26/2023 22:24:27.100,0,0,0
11/26/2023 22:24:27.110,0,0,0
11/26/2023 22:24:27.120,0,0,0
11/26/2023 22:24:27.130,0,0,0
11/26/2023 22:24:27.140,0,0,0
11/26/2023 22:24:27.150,0,0,0
11/26/2023 22:24:27.160,0,0,0
11/26/2023 22:24:27.170,0,0,0
11/26/2023 22:24:27.180,0,0,0
11/26/2023 22:24:27.190,0,0,0
11/26/2023 22:24:27.200,0,0,0
11/26/2023 22:24:27.210,0,0,0
11/26/2023 22:24:27.220,0,0,0
11/26/2023 22:24:27.230,0,0,0
11/26/2023 22:24:27.240,0,0,0
11/26/2023 22:24:27.250,0,0,0
11/26/2023 22:24:27.260,0,0,0
11/26/2023 22:24:27.270,0,0,0
11/26/2023 22:24:27.280,0,0,0
11/26/2023 22:24:27.290,0,0,0
11/26/2023 22:24:27.300,0,0,0
11/26/2023 22:24:27.310,0,0,0
11/26/2023 22:24:27.320,0,0,0
11/26/2023 22:24:27.330,0,0,0
11/26/2023 22:24:27.340,0,0,0
11/26/2023 22:24:27.350,0,0,0
11/26/2023 22:24:27.360,0,0,0
11/26/2023 22:24:27.370,0,0,0
11/26/2023 22:24:27.380,0,0,0
11/26/2023 22:24:27.390,0,0,0
11/26/2023 22:24:27.400,0,0,0
11/26/2023 22:24:27.410,0,0,0
11/26/2023 22:24:27.420,0,0,0
11/26/2023 22:24:27.430,0,0,0
11/26/2023 22:24:27.440,0,0,0
11/26/2023 22:24:27.450,0,0,0
11/26/2023 22:24:27.460,0,0,0
11/26/2023 22:24:27.470,0,0,0
11/26/2023 22:24:27.480,0,0,0
11/26/2023 22:24:27.490,0,0,0
11/26/2023 22:24:27.500,0,0,0
11/26/2023 22:24:27.510,0,0,0
11/26/2023 22:24:27.520,0,0,0
11/26/2023 22:24:27.530,0,0,0
11/26/2023 22:24:27.540,0,0,0
11/26/2023 22:24:27.550,0,0,0
11/26/2023 22:24:27.560,0,0,0
11/26/2023 22:24:27.570,0,0,0
11/26/2023 22:24:27.580,0,0,0
11/26/2023 22:24:27.590,0,0,0
11/26/2023 22:24:27.600,0,0,0
11/26/2023 22:24:27.610,0,0,0
11/26/2023 22:24:27.620,0,0,0
11/26/2023 22:24:27.630,0,0,0
11/26/2023 22:24:27.640,0,0,0
11/26/2023 22:24:27.650,0,0,0
11/26/2023 22:24:27.660,0,0,0
11/26/2023 22:24:27.670,0,0,0
11/26/2023 22:24:27.680,0,0,0
11/26/2023 22:24:27.690,0,0,0
11/26/2023 22:24:27.700,0,0,0
11/26/2023 22:24:27.710,0,0,0
11/26/2023 22:24:27.720,0,0,0
11/26/2023 22:24:27.730,0,0,0
11/26/2023 22:24:27.740,0,0,0
11/26/2023 22:24:27.750,0,0,0
11/26/2023 22:24:27.760,0,0,0
11/26/2023 22:24:27.770,0,0,0
11/26/2023 22:24:27.780,0,0,0
11/26/2023 22:24:27.790,0,0,0
11/26/2023 22:24:27.800,0,0,0
11/26/2023 22:24:27.810,0,0,0
11/26/2023 22:24:27.820,0,0,0
11/26/2023 22:24:27.830,0,0,0
11/26/2023 22:24:27.840,0,0,0
11/26/2023 22:24:27.850,0,0,0
11/26/2023 22:24:27.860,0,0,0
11/26/2023 22:24:27.870,0,0,0
11/26/2023 22:24:27.880,0,0,0
11/26/2023 22:24:27.890,0,0,0
11/26/2023 22:24:27.900,0,0,0
11/26/2023 22:24:27.910,0,0,0
11/26/2023 22:24:27.920,0,0,0
11/26/2023 22:24:27.930,0,0,0
11/26/2023 22:24:27.940,0,0,0
11/26/2023 22:24:27.950,0,0,0
11/26/2023 22:24:27.960,0,0,0
11/26/2023 22:24:27.970,0,0,0
11/26/2023 22:24:27.980,0,0,0
11/26/2023 22:24:27.990,0,0,0
11/26/2023 22:24:28.000,0,0,0
11/26/2023 22:24:28.010,0,0,0
11/26/2023 22:24:28.020,0,0,0
11/26/2023 22:24:28.030,0,0,0
11/26/2023 22:24:28.040,0,0,0
11/26/2023 22:24:28.050,0,0,0
11/26/2023 22:24:28.060,0,0,0
11/26/2023 22:24:28.070,0,0,0
11/26/2023 22:24:28.080,0,0,0
11/26/2023 22:24:28.090,0,0,0
11/26/2023 22:24:28.100,0,0,0
11/26/2023 22:24:28.110,0,0,0
11/26/2023 22:24:28.120,0,0,0
11/26/2023 22:24:28.130,0,0,0
11/26/2023 22:24:28.140,0,0,0
11/26/2023 22:24:28.150,0,0,0
11/26/2023 22:24:28.160,0,0,0
11/26/2023 22:24:28.170,0,0,0
11/26/2023 22:24:28.180,0,0,0
11/26/2023 22:24:28.190,0,0,0
11/26/2023 22:24:28.200,0,0,0
11/26/2023 22:24:28.210,0,0,0
11/26/2023 22:24:28.220,0,0,0
11/26/2023 22:24:28.230,0,0,0
11/26/2023 22:24:28.240,0,0,0
11/26/2023 22:24:28.250,0,0,0
11/26/2023 22:24:28.260,0,0,0
11/26/2023 22:24:28.270,0,0,0
11/26/2023 22:24:28.280,0,0,0
11/26/2023 22:24:28.290,0,0,0
11/26/2023 22:24:28.300,0,0,0
11/26/2023 22:24:28.310,0,0,0
11/26/2023 22:24:28.320,0,0,0
11/26/2023 22:24:28.330,0,0,0
11/26/2023 22:24:28.340,0,0,0
11/26/2023 22:24:28.350,0,0,0
11/26/2023 22:24:28.360,0,0,0
11/26/2023 22:24:28.370,0,0,0
11/26/2023 22:24:28.380,0,0,0
11/26/2023 22:24:28.390,0,0,0
