------------ Data File Created By ActiGraph GT3X+ ActiLife v6.13.4 Firmware v1.7.2 date format M/d/yyyy at 100 Hz  Filter Normal -----------
Serial Number: TAS1H50200818
Start Time 22:14:00
Start Date 11/26/2023
Epoch Period (hh:mm:ss) 00:00:00
Download Time 22:15:19
Download Date 11/26/2023
Current Memory Address: 0
Current Battery Voltage: 4.15     Mode = 12
--------------------------------------------------
Timestamp,Accelerometer X,Accelerometer Y,Accelerometer Z
11/26/2023 22:14:00.000,0.113,-0.98,0.172
11/26/2023 22:14:00.010,0.141,-0.973,0.18
11/26/2023 22:14:00.020,0.145,-0.969,0.176
11/26/2023 22:14:00.030,0.156,-0.957,0.176
11/26/2023 22:14:00.040,0.16,-0.965,0.176
11/26/2023 22:14:00.050,0.168,-0.969,0.172
11/26/2023 22:14:00.060,0.18,-0.969,0.168
11/26/2023 22:14:00.070,0.188,-0.973,0.164
11/26/2023 22:14:00.080,0.188,-0.984,0.164
11/26/2023 22:14:00.090,0.191,-0.984,0.164
11/26/2023 22:14:00.100,0.188,-0.996,0.164
11/26/2023 22:14:00.110,0.188,-1,0.168
11/26/2023 22:14:00.120,0.18,-1,0.164
11/26/2023 22:14:00.130,0.168,-0.992,0.164
11/26/2023 22:14:00.140,0.164,-0.98,0.172
11/26/2023 22:14:00.150,0.168,-0.98,0.172
11/26/2023 22:14:00.160,0.168,-0.977,0.172
11/26/2023 22:14:00.170,0.172,-0.973,0.172
11/26/2023 22:14:00.180,0.18,-0.973,0.172
11/26/2023 22:14:00.190,0.18,-0.969,0.172
11/26/2023 22:14:00.200,0.18,-0.969,0.172
11/26/2023 22:14:00.210,0.184,-0.973,0.172
11/26/2023 22:14:00.220,0.188,-0.973,0.172
11/26/2023 22:14:00.230,0.191,-0.973,0.172
11/26/2023 22:14:00.240,0.18,-0.973,0.172
11/26/2023 22:14:00.250,0.188,-0.973,0.176
11/26/2023 22:14:00.260,0.188,-0.973,0.176
11/26/2023 22:14:00.270,0.191,-0.977,0.176
11/26/2023 22:14:00.280,0.188,-0.977,0.176
11/26/2023 22:14:00.290,0.188,-0.969,0.176
11/26/2023 22:14:00.300,0.188,-0.969,0.176
11/26/2023 22:14:00.310,0.191,-0.965,0.18
11/26/2023 22:14:00.320,0.191,-0.961,0.18
11/26/2023 22:14:00.330,0.191,-0.957,0.18
11/26/2023 22:14:00.340,0.195,-0.961,0.18
11/26/2023 22:14:00.350,0.195,-0.965,0.176
11/26/2023 22:14:00.360,0.195,-0.969,0.176
11/26/2023 22:14:00.370,0.191,-0.973,0.172
11/26/2023 22:14:00.380,0.191,-0.977,0.172
11/26/2023 22:14:00.390,0.191,-0.977,0.172
11/26/2023 22:14:00.400,0.191,-0.98,0.176
11/26/2023 22:14:00.410,0.188,-0.98,0.172
11/26/2023 22:14:00.420,0.188,-0.98,0.172
11/26/2023 22:14:00.430,0.188,-0.977,0.172
11/26/2023 22:14:00.440,0.184,-0.973,0.172
11/26/2023 22:14:00.450,0.184,-0.973,0.172
11/26/2023 22:14:00.460,0.184,-0.973,0.176
11/26/2023 22:14:00.470,0.184,-0.973,0.176
11/26/2023 22:14:00.480,0.188,-0.973,0.18
11/26/2023 22:14:00.490,0.188,-0.98,0.184
11/26/2023 22:14:00.500,0.176,-0.98,0.18
11/26/2023 22:14:00.510,0.18,-0.988,0.188
11/26/2023 22:14:00.520,0.18,-0.98,0.188
11/26/2023 22:14:00.530,0.176,-0.977,0.18
11/26/2023 22:14:00.540,0.176,-0.98,0.176
11/26/2023 22:14:00.550,0.18,-0.984,0.176
11/26/2023 22:14:00.560,0.184,-0.992,0.184
11/26/2023 22:14:00.570,0.188,-0.992,0.188
11/26/2023 22:14:00.580,0.188,-0.988,0.184
11/26/2023 22:14:00.590,0.184,-0.98,0.188
11/26/2023 22:14:00.600,0.176,-0.977,0.191
11/26/2023 22:14:00.610,0.176,-0.969,0.195
11/26/2023 22:14:00.620,0.172,-0.961,0.195
11/26/2023 22:14:00.630,0.168,-0.961,0.191
11/26/2023 22:14:00.640,0.172,-0.965,0.188
11/26/2023 22:14:00.650,0.176,-0.965,0.199
11/26/2023 22:14:00.660,0.18,-0.973,0.207
11/26/2023 22:14:00.670,0.184,-0.977,0.211
11/26/2023 22:14:00.680,0.191,-0.988,0.211
11/26/2023 22:14:00.690,0.195,-0.984,0.219
11/26/2023 22:14:00.700,0.195,-0.98,0.219
11/26/2023 22:14:00.710,0.195,-0.977,0.215
11/26/2023 22:14:00.720,0.184,-0.973,0.207
11/26/2023 22:14:00.730,0.18,-0.969,0.207
11/26/2023 22:14:00.740,0.18,-0.961,0.211
11/26/2023 22:14:00.750,0.184,-0.957,0.211
11/26/2023 22:14:00.760,0.188,-0.953,0.211
11/26/2023 22:14:00.770,0.188,-0.953,0.211
11/26/2023 22:14:00.780,0.18,-0.957,0.215
11/26/2023 22:14:00.790,0.18,-0.961,0.215
11/26/2023 22:14:00.800,0.172,-0.969,0.215
11/26/2023 22:14:00.810,0.156,-0.973,0.207
11/26/2023 22:14:00.820,0.141,-0.969,0.203
11/26/2023 22:14:00.830,0.133,-0.965,0.199
11/26/2023 22:14:00.840,0.129,-0.969,0.203
11/26/2023 22:14:00.850,0.141,-0.98,0.215
11/26/2023 22:14:00.860,0.156,-0.988,0.227
11/26/2023 22:14:00.870,0.18,-0.988,0.238
11/26/2023 22:14:00.880,0.195,-0.98,0.246
11/26/2023 22:14:00.890,0.207,-0.988,0.254
11/26/2023 22:14:00.900,0.227,-0.984,0.254
11/26/2023 22:14:00.910,0.242,-0.969,0.246
11/26/2023 22:14:00.920,0.242,-0.949,0.23
11/26/2023 22:14:00.930,0.234,-0.938,0.215
11/26/2023 22:14:00.940,0.219,-0.938,0.215
11/26/2023 22:14:00.950,0.219,-0.934,0.223
11/26/2023 22:14:00.960,0.211,-0.938,0.227
11/26/2023 22:14:00.970,0.195,-0.957,0.238
11/26/2023 22:14:00.980,0.18,-0.98,0.254
11/26/2023 22:14:00.990,0.168,-0.992,0.262
11/26/2023 22:14:01.000,0.129,-0.988,0.258
11/26/2023 22:14:01.010,0.109,-0.98,0.266
11/26/2023 22:14:01.020,0.102,-0.969,0.285
11/26/2023 22:14:01.030,0.105,-0.953,0.301
11/26/2023 22:14:01.040,0.102,-0.941,0.309
11/26/2023 22:14:01.050,0.098,-0.934,0.297
11/26/2023 22:14:01.060,0.09,-0.934,0.285
11/26/2023 22:14:01.070,0.086,-0.941,0.27
11/26/2023 22:14:01.080,0.09,-0.953,0.266
11/26/2023 22:14:01.090,0.094,-0.965,0.258
11/26/2023 22:14:01.100,0.109,-0.969,0.246
11/26/2023 22:14:01.110,0.133,-0.977,0.246
11/26/2023 22:14:01.120,0.152,-0.98,0.246
11/26/2023 22:14:01.130,0.172,-0.98,0.242
11/26/2023 22:14:01.140,0.191,-0.977,0.242
11/26/2023 22:14:01.150,0.215,-0.957,0.246
11/26/2023 22:14:01.160,0.242,-0.938,0.246
11/26/2023 22:14:01.170,0.262,-0.918,0.254
11/26/2023 22:14:01.180,0.27,-0.91,0.258
11/26/2023 22:14:01.190,0.273,-0.906,0.262
11/26/2023 22:14:01.200,0.273,-0.906,0.262
11/26/2023 22:14:01.210,0.258,-0.922,0.258
11/26/2023 22:14:01.220,0.238,-0.93,0.254
11/26/2023 22:14:01.230,0.219,-0.938,0.254
11/26/2023 22:14:01.240,0.203,-0.949,0.25
11/26/2023 22:14:01.250,0.184,-0.957,0.242
11/26/2023 22:14:01.260,0.172,-0.961,0.23
11/26/2023 22:14:01.270,0.168,-0.961,0.227
11/26/2023 22:14:01.280,0.164,-0.969,0.227
11/26/2023 22:14:01.290,0.16,-0.969,0.223
11/26/2023 22:14:01.300,0.16,-0.965,0.211
11/26/2023 22:14:01.310,0.152,-0.961,0.203
11/26/2023 22:14:01.320,0.156,-0.957,0.203
11/26/2023 22:14:01.330,0.168,-0.953,0.203
11/26/2023 22:14:01.340,0.184,-0.949,0.207
11/26/2023 22:14:01.350,0.188,-0.945,0.207
11/26/2023 22:14:01.360,0.188,-0.953,0.207
11/26/2023 22:14:01.370,0.191,-0.961,0.199
11/26/2023 22:14:01.380,0.184,-0.965,0.191
11/26/2023 22:14:01.390,0.18,-0.969,0.18
11/26/2023 22:14:01.400,0.172,-0.973,0.16
11/26/2023 22:14:01.410,0.156,-0.969,0.152
11/26/2023 22:14:01.420,0.129,-0.969,0.145
11/26/2023 22:14:01.430,0.109,-0.953,0.141
11/26/2023 22:14:01.440,0.082,-0.93,0.125
11/26/2023 22:14:01.450,0.066,-0.906,0.121
11/26/2023 22:14:01.460,0.063,-0.879,0.125
11/26/2023 22:14:01.470,0.07,-0.863,0.133
11/26/2023 22:14:01.480,0.094,-0.867,0.156
11/26/2023 22:14:01.490,0.098,-0.891,0.168
11/26/2023 22:14:01.500,0.086,-0.918,0.164
11/26/2023 22:14:01.510,0.09,-0.973,0.164
11/26/2023 22:14:01.520,0.094,-1.043,0.188
11/26/2023 22:14:01.530,0.113,-1.121,0.223
11/26/2023 22:14:01.540,0.125,-1.207,0.238
11/26/2023 22:14:01.550,0.148,-1.266,0.242
11/26/2023 22:14:01.560,0.16,-1.293,0.238
11/26/2023 22:14:01.570,0.172,-1.281,0.23
11/26/2023 22:14:01.580,0.184,-1.219,0.223
11/26/2023 22:14:01.590,0.184,-1.133,0.203
11/26/2023 22:14:01.600,0.168,-1.059,0.188
11/26/2023 22:14:01.610,0.141,-0.984,0.18
11/26/2023 22:14:01.620,0.113,-0.922,0.172
11/26/2023 22:14:01.630,0.082,-0.867,0.164
11/26/2023 22:14:01.640,0.059,-0.828,0.156
11/26/2023 22:14:01.650,0.039,-0.789,0.137
11/26/2023 22:14:01.660,0.023,-0.777,0.129
11/26/2023 22:14:01.670,0.016,-0.785,0.129
11/26/2023 22:14:01.680,0.008,-0.805,0.125
11/26/2023 22:14:01.690,0.012,-0.844,0.121
11/26/2023 22:14:01.700,0.02,-0.891,0.121
11/26/2023 22:14:01.710,0.027,-0.945,0.121
11/26/2023 22:14:01.720,0.027,-0.996,0.125
11/26/2023 22:14:01.730,0.035,-1.035,0.137
11/26/2023 22:14:01.740,0.043,-1.07,0.156
11/26/2023 22:14:01.750,0.051,-1.078,0.168
11/26/2023 22:14:01.760,0.051,-1.074,0.172
11/26/2023 22:14:01.770,0.039,-1.051,0.172
11/26/2023 22:14:01.780,0.023,-1.027,0.172
11/26/2023 22:14:01.790,0.008,-1.012,0.176
11/26/2023 22:14:01.800,-0.008,-0.996,0.18
11/26/2023 22:14:01.810,-0.02,-0.98,0.184
11/26/2023 22:14:01.820,-0.02,-0.969,0.176
11/26/2023 22:14:01.830,-0.031,-0.969,0.176
11/26/2023 22:14:01.840,-0.039,-0.98,0.176
11/26/2023 22:14:01.850,-0.039,-0.992,0.176
11/26/2023 22:14:01.860,-0.031,-1.012,0.16
11/26/2023 22:14:01.870,-0.02,-1.027,0.152
11/26/2023 22:14:01.880,0.012,-1.035,0.145
11/26/2023 22:14:01.890,0.051,-1.031,0.141
11/26/2023 22:14:01.900,0.082,-1.031,0.148
11/26/2023 22:14:01.910,0.105,-1.039,0.152
11/26/2023 22:14:01.920,0.105,-1.055,0.152
11/26/2023 22:14:01.930,0.098,-1.063,0.145
11/26/2023 22:14:01.940,0.063,-1.066,0.117
11/26/2023 22:14:01.950,0.027,-1.082,0.102
11/26/2023 22:14:01.960,0.004,-1.086,0.086
11/26/2023 22:14:01.970,-0.008,-1.094,0.086
11/26/2023 22:14:01.980,0,-1.113,0.102
11/26/2023 22:14:01.990,0.023,-1.164,0.137
11/26/2023 22:14:02.000,0.051,-1.23,0.176
11/26/2023 22:14:02.010,0.082,-1.277,0.191
11/26/2023 22:14:02.020,0.086,-1.281,0.168
11/26/2023 22:14:02.030,0.07,-1.27,0.113
11/26/2023 22:14:02.040,0.059,-1.262,0.066
11/26/2023 22:14:02.050,0.07,-1.289,0.059
11/26/2023 22:14:02.060,0.086,-1.328,0.047
11/26/2023 22:14:02.070,0.086,-1.344,0.004
11/26/2023 22:14:02.080,0.082,-1.313,-0.066
11/26/2023 22:14:02.090,0.102,-1.258,-0.109
11/26/2023 22:14:02.100,0.156,-1.191,-0.117
11/26/2023 22:14:02.110,0.23,-1.121,-0.121
11/26/2023 22:14:02.120,0.313,-1.051,-0.098
11/26/2023 22:14:02.130,0.406,-0.992,-0.047
11/26/2023 22:14:02.140,0.508,-0.934,0.02
11/26/2023 22:14:02.150,0.602,-0.871,0.105
11/26/2023 22:14:02.160,0.691,-0.785,0.207
11/26/2023 22:14:02.170,0.738,-0.672,0.277
11/26/2023 22:14:02.180,0.711,-0.547,0.281
11/26/2023 22:14:02.190,0.598,-0.449,0.238
11/26/2023 22:14:02.200,0.461,-0.43,0.203
11/26/2023 22:14:02.210,0.344,-0.492,0.168
11/26/2023 22:14:02.220,0.223,-0.621,0.125
11/26/2023 22:14:02.230,0.105,-0.785,0.102
11/26/2023 22:14:02.240,0.027,-0.945,0.082
11/26/2023 22:14:02.250,-0.012,-1.09,0.082
11/26/2023 22:14:02.260,-0.008,-1.219,0.098
11/26/2023 22:14:02.270,0,-1.332,0.113
11/26/2023 22:14:02.280,0.039,-1.41,0.141
11/26/2023 22:14:02.290,0.105,-1.406,0.18
11/26/2023 22:14:02.300,0.184,-1.324,0.211
11/26/2023 22:14:02.310,0.246,-1.18,0.223
11/26/2023 22:14:02.320,0.289,-1.004,0.219
11/26/2023 22:14:02.330,0.309,-0.844,0.211
11/26/2023 22:14:02.340,0.309,-0.73,0.207
11/26/2023 22:14:02.350,0.301,-0.668,0.215
11/26/2023 22:14:02.360,0.277,-0.656,0.242
11/26/2023 22:14:02.370,0.254,-0.668,0.266
11/26/2023 22:14:02.380,0.227,-0.688,0.273
11/26/2023 22:14:02.390,0.195,-0.707,0.27
11/26/2023 22:14:02.400,0.168,-0.719,0.262
11/26/2023 22:14:02.410,0.141,-0.742,0.254
11/26/2023 22:14:02.420,0.121,-0.77,0.254
11/26/2023 22:14:02.430,0.105,-0.785,0.258
11/26/2023 22:14:02.440,0.094,-0.805,0.266
11/26/2023 22:14:02.450,0.094,-0.832,0.281
11/26/2023 22:14:02.460,0.094,-0.848,0.305
11/26/2023 22:14:02.470,0.098,-0.848,0.328
11/26/2023 22:14:02.480,0.098,-0.855,0.367
11/26/2023 22:14:02.490,0.09,-0.855,0.406
11/26/2023 22:14:02.500,0.063,-0.84,0.449
11/26/2023 22:14:02.510,0.047,-0.824,0.465
11/26/2023 22:14:02.520,0.027,-0.797,0.441
11/26/2023 22:14:02.530,0.02,-0.766,0.398
11/26/2023 22:14:02.540,0.023,-0.758,0.332
11/26/2023 22:14:02.550,0.055,-0.746,0.285
11/26/2023 22:14:02.560,0.129,-0.754,0.242
11/26/2023 22:14:02.570,0.207,-0.777,0.176
11/26/2023 22:14:02.580,0.293,-0.789,0.125
11/26/2023 22:14:02.590,0.359,-0.836,0.203
11/26/2023 22:14:02.600,0.422,-0.953,0.398
11/26/2023 22:14:02.610,0.516,-1.094,0.594
11/26/2023 22:14:02.620,0.598,-1.211,0.699
11/26/2023 22:14:02.630,0.559,-1.297,0.656
11/26/2023 22:14:02.640,0.387,-1.371,0.461
11/26/2023 22:14:02.650,0.223,-1.465,0.273
11/26/2023 22:14:02.660,0.168,-1.582,0.203
11/26/2023 22:14:02.670,0.18,-1.68,0.18
11/26/2023 22:14:02.680,0.207,-1.754,0.133
11/26/2023 22:14:02.690,0.262,-1.789,0.09
11/26/2023 22:14:02.700,0.336,-1.766,0.113
11/26/2023 22:14:02.710,0.387,-1.656,0.164
11/26/2023 22:14:02.720,0.445,-1.465,0.23
11/26/2023 22:14:02.730,0.504,-1.219,0.266
11/26/2023 22:14:02.740,0.5,-0.949,0.211
11/26/2023 22:14:02.750,0.434,-0.695,0.105
11/26/2023 22:14:02.760,0.352,-0.492,0.012
11/26/2023 22:14:02.770,0.281,-0.332,-0.074
11/26/2023 22:14:02.780,0.234,-0.242,-0.16
11/26/2023 22:14:02.790,0.207,-0.238,-0.207
11/26/2023 22:14:02.800,0.199,-0.359,-0.18
11/26/2023 22:14:02.810,0.195,-0.57,-0.094
11/26/2023 22:14:02.820,0.195,-0.82,0.031
11/26/2023 22:14:02.830,0.195,-1.043,0.141
11/26/2023 22:14:02.840,0.195,-1.203,0.191
11/26/2023 22:14:02.850,0.219,-1.258,0.203
11/26/2023 22:14:02.860,0.258,-1.234,0.211
11/26/2023 22:14:02.870,0.32,-1.148,0.234
11/26/2023 22:14:02.880,0.367,-1.039,0.246
11/26/2023 22:14:02.890,0.383,-0.914,0.219
11/26/2023 22:14:02.900,0.383,-0.785,0.18
11/26/2023 22:14:02.910,0.387,-0.668,0.152
11/26/2023 22:14:02.920,0.359,-0.602,0.125
11/26/2023 22:14:02.930,0.305,-0.559,0.102
11/26/2023 22:14:02.940,0.227,-0.555,0.086
11/26/2023 22:14:02.950,0.156,-0.59,0.094
11/26/2023 22:14:02.960,0.109,-0.633,0.109
11/26/2023 22:14:02.970,0.086,-0.68,0.109
11/26/2023 22:14:02.980,0.074,-0.738,0.109
11/26/2023 22:14:02.990,0.066,-0.809,0.129
11/26/2023 22:14:03.000,0.031,-0.879,0.152
11/26/2023 22:14:03.010,-0.004,-0.957,0.18
11/26/2023 22:14:03.020,-0.063,-1.02,0.203
11/26/2023 22:14:03.030,-0.117,-1.063,0.223
11/26/2023 22:14:03.040,-0.156,-1.09,0.242
11/26/2023 22:14:03.050,-0.184,-1.113,0.25
11/26/2023 22:14:03.060,-0.195,-1.121,0.25
11/26/2023 22:14:03.070,-0.172,-1.121,0.258
11/26/2023 22:14:03.080,-0.117,-1.102,0.285
11/26/2023 22:14:03.090,-0.043,-1.07,0.313
11/26/2023 22:14:03.100,0.02,-1.027,0.336
11/26/2023 22:14:03.110,0.09,-0.988,0.34
11/26/2023 22:14:03.120,0.145,-0.945,0.309
11/26/2023 22:14:03.130,0.195,-0.898,0.27
11/26/2023 22:14:03.140,0.223,-0.867,0.254
11/26/2023 22:14:03.150,0.242,-0.879,0.258
11/26/2023 22:14:03.160,0.246,-0.941,0.281
11/26/2023 22:14:03.170,0.207,-0.992,0.262
11/26/2023 22:14:03.180,0.078,-1.004,0.184
11/26/2023 22:14:03.190,-0.113,-1.012,0.141
11/26/2023 22:14:03.200,-0.266,-1.082,0.172
11/26/2023 22:14:03.210,-0.297,-1.199,0.254
11/26/2023 22:14:03.220,-0.219,-1.348,0.371
11/26/2023 22:14:03.230,-0.098,-1.492,0.438
11/26/2023 22:14:03.240,0.043,-1.59,0.387
11/26/2023 22:14:03.250,0.234,-1.625,0.301
11/26/2023 22:14:03.260,0.426,-1.602,0.242
11/26/2023 22:14:03.270,0.512,-1.531,0.105
11/26/2023 22:14:03.280,0.5,-1.434,-0.113
11/26/2023 22:14:03.290,0.527,-1.313,-0.277
11/26/2023 22:14:03.300,0.598,-1.199,-0.281
11/26/2023 22:14:03.310,0.637,-1.09,-0.133
11/26/2023 22:14:03.320,0.668,-0.961,0.09
11/26/2023 22:14:03.330,0.672,-0.82,0.254
11/26/2023 22:14:03.340,0.621,-0.676,0.305
11/26/2023 22:14:03.350,0.547,-0.551,0.297
11/26/2023 22:14:03.360,0.477,-0.477,0.293
11/26/2023 22:14:03.370,0.395,-0.473,0.309
11/26/2023 22:14:03.380,0.301,-0.551,0.305
11/26/2023 22:14:03.390,0.191,-0.66,0.262
11/26/2023 22:14:03.400,0.066,-0.758,0.207
11/26/2023 22:14:03.410,-0.047,-0.836,0.152
11/26/2023 22:14:03.420,-0.129,-0.898,0.109
11/26/2023 22:14:03.430,-0.164,-0.945,0.078
11/26/2023 22:14:03.440,-0.164,-0.988,0.066
11/26/2023 22:14:03.450,-0.125,-1.039,0.086
11/26/2023 22:14:03.460,-0.055,-1.082,0.152
11/26/2023 22:14:03.470,0.012,-1.125,0.227
11/26/2023 22:14:03.480,0.09,-1.133,0.301
11/26/2023 22:14:03.490,0.16,-1.086,0.344
11/26/2023 22:14:03.500,0.211,-0.992,0.348
11/26/2023 22:14:03.510,0.254,-0.902,0.332
11/26/2023 22:14:03.520,0.27,-0.832,0.305
11/26/2023 22:14:03.530,0.262,-0.797,0.305
11/26/2023 22:14:03.540,0.25,-0.789,0.316
11/26/2023 22:14:03.550,0.234,-0.785,0.336
11/26/2023 22:14:03.560,0.219,-0.773,0.336
11/26/2023 22:14:03.570,0.195,-0.75,0.324
11/26/2023 22:14:03.580,0.168,-0.73,0.32
11/26/2023 22:14:03.590,0.145,-0.711,0.324
11/26/2023 22:14:03.600,0.113,-0.711,0.344
11/26/2023 22:14:03.610,0.086,-0.734,0.375
11/26/2023 22:14:03.620,0.051,-0.758,0.398
11/26/2023 22:14:03.630,0.004,-0.781,0.414
11/26/2023 22:14:03.640,-0.055,-0.809,0.434
11/26/2023 22:14:03.650,-0.105,-0.828,0.438
11/26/2023 22:14:03.660,-0.148,-0.816,0.414
11/26/2023 22:14:03.670,-0.176,-0.816,0.371
11/26/2023 22:14:03.680,-0.164,-0.805,0.316
11/26/2023 22:14:03.690,-0.105,-0.789,0.246
11/26/2023 22:14:03.700,-0.027,-0.789,0.105
11/26/2023 22:14:03.710,0.063,-0.781,-0.023
11/26/2023 22:14:03.720,0.188,-0.801,0.008
11/26/2023 22:14:03.730,0.34,-0.895,0.266
11/26/2023 22:14:03.740,0.52,-1.039,0.621
11/26/2023 22:14:03.750,0.707,-1.141,0.82
11/26/2023 22:14:03.760,0.793,-1.211,0.785
11/26/2023 22:14:03.770,0.727,-1.293,0.543
11/26/2023 22:14:03.780,0.57,-1.422,0.227
11/26/2023 22:14:03.790,0.426,-1.551,0
11/26/2023 22:14:03.800,0.363,-1.656,-0.164
11/26/2023 22:14:03.810,0.359,-1.77,-0.25
11/26/2023 22:14:03.820,0.332,-1.91,-0.133
11/26/2023 22:14:03.830,0.258,-1.984,0.043
11/26/2023 22:14:03.840,0.211,-1.922,0.176
11/26/2023 22:14:03.850,0.227,-1.691,0.234
11/26/2023 22:14:03.860,0.246,-1.316,0.211
11/26/2023 22:14:03.870,0.238,-0.883,0.117
11/26/2023 22:14:03.880,0.223,-0.523,0.027
11/26/2023 22:14:03.890,0.219,-0.293,-0.031
11/26/2023 22:14:03.900,0.223,-0.207,-0.063
11/26/2023 22:14:03.910,0.203,-0.273,-0.07
11/26/2023 22:14:03.920,0.16,-0.453,-0.039
11/26/2023 22:14:03.930,0.129,-0.691,0
11/26/2023 22:14:03.940,0.125,-0.914,0.02
11/26/2023 22:14:03.950,0.145,-1.094,0.035
11/26/2023 22:14:03.960,0.168,-1.238,0.055
11/26/2023 22:14:03.970,0.219,-1.332,0.09
11/26/2023 22:14:03.980,0.285,-1.348,0.125
11/26/2023 22:14:03.990,0.359,-1.273,0.156
11/26/2023 22:14:04.000,0.398,-1.133,0.16
11/26/2023 22:14:04.010,0.438,-0.969,0.164
11/26/2023 22:14:04.020,0.469,-0.805,0.16
11/26/2023 22:14:04.030,0.48,-0.664,0.156
11/26/2023 22:14:04.040,0.453,-0.574,0.148
11/26/2023 22:14:04.050,0.371,-0.531,0.133
11/26/2023 22:14:04.060,0.262,-0.527,0.113
11/26/2023 22:14:04.070,0.172,-0.547,0.105
11/26/2023 22:14:04.080,0.105,-0.586,0.113
11/26/2023 22:14:04.090,0.063,-0.625,0.117
11/26/2023 22:14:04.100,0.023,-0.656,0.113
11/26/2023 22:14:04.110,-0.004,-0.688,0.102
11/26/2023 22:14:04.120,-0.023,-0.723,0.09
11/26/2023 22:14:04.130,-0.031,-0.758,0.086
11/26/2023 22:14:04.140,-0.043,-0.801,0.094
11/26/2023 22:14:04.150,-0.055,-0.84,0.102
11/26/2023 22:14:04.160,-0.063,-0.879,0.113
11/26/2023 22:14:04.170,-0.063,-0.93,0.125
11/26/2023 22:14:04.180,-0.066,-0.98,0.137
11/26/2023 22:14:04.190,-0.055,-1.016,0.156
11/26/2023 22:14:04.200,-0.027,-1.043,0.184
11/26/2023 22:14:04.210,0.012,-1.059,0.215
11/26/2023 22:14:04.220,0.051,-1.055,0.246
11/26/2023 22:14:04.230,0.09,-1.043,0.281
11/26/2023 22:14:04.240,0.129,-1.023,0.316
11/26/2023 22:14:04.250,0.164,-1.012,0.332
11/26/2023 22:14:04.260,0.184,-1.004,0.336
11/26/2023 22:14:04.270,0.172,-0.996,0.313
11/26/2023 22:14:04.280,0.121,-1,0.277
11/26/2023 22:14:04.290,0.051,-1.016,0.25
11/26/2023 22:14:04.300,-0.063,-1.035,0.23
11/26/2023 22:14:04.310,-0.188,-1.063,0.227
11/26/2023 22:14:04.320,-0.27,-1.109,0.266
11/26/2023 22:14:04.330,-0.297,-1.176,0.332
11/26/2023 22:14:04.340,-0.254,-1.254,0.387
11/26/2023 22:14:04.350,-0.164,-1.352,0.344
11/26/2023 22:14:04.360,-0.023,-1.43,0.227
11/26/2023 22:14:04.370,0.164,-1.457,0.148
11/26/2023 22:14:04.380,0.285,-1.453,0.055
11/26/2023 22:14:04.390,0.395,-1.426,-0.063
11/26/2023 22:14:04.400,0.555,-1.344,-0.105
11/26/2023 22:14:04.410,0.688,-1.258,-0.117
11/26/2023 22:14:04.420,0.715,-1.191,-0.109
11/26/2023 22:14:04.430,0.703,-1.109,-0.055
11/26/2023 22:14:04.440,0.727,-0.984,0.094
11/26/2023 22:14:04.450,0.75,-0.84,0.266
11/26/2023 22:14:04.460,0.758,-0.719,0.387
11/26/2023 22:14:04.470,0.691,-0.668,0.363
11/26/2023 22:14:04.480,0.539,-0.727,0.281
11/26/2023 22:14:04.490,0.355,-0.887,0.234
11/26/2023 22:14:04.500,0.184,-1.094,0.215
11/26/2023 22:14:04.510,0.055,-1.297,0.195
11/26/2023 22:14:04.520,-0.078,-1.434,0.152
11/26/2023 22:14:04.530,-0.199,-1.473,0.09
11/26/2023 22:14:04.540,-0.281,-1.406,0.035
11/26/2023 22:14:04.550,-0.313,-1.262,0.008
11/26/2023 22:14:04.560,-0.305,-1.043,0.004
11/26/2023 22:14:04.570,-0.289,-0.824,0.023
11/26/2023 22:14:04.580,-0.258,-0.648,0.043
11/26/2023 22:14:04.590,-0.188,-0.531,0.07
11/26/2023 22:14:04.600,-0.074,-0.484,0.125
11/26/2023 22:14:04.610,0.035,-0.488,0.199
11/26/2023 22:14:04.620,0.125,-0.516,0.266
11/26/2023 22:14:04.630,0.191,-0.555,0.301
11/26/2023 22:14:04.640,0.246,-0.605,0.309
11/26/2023 22:14:04.650,0.293,-0.66,0.289
11/26/2023 22:14:04.660,0.332,-0.73,0.266
11/26/2023 22:14:04.670,0.359,-0.809,0.254
11/26/2023 22:14:04.680,0.371,-0.895,0.262
11/26/2023 22:14:04.690,0.375,-0.949,0.273
11/26/2023 22:14:04.700,0.363,-0.98,0.297
11/26/2023 22:14:04.710,0.328,-0.973,0.305
11/26/2023 22:14:04.720,0.281,-0.941,0.309
11/26/2023 22:14:04.730,0.227,-0.91,0.313
11/26/2023 22:14:04.740,0.164,-0.887,0.336
11/26/2023 22:14:04.750,0.094,-0.879,0.371
11/26/2023 22:14:04.760,0.02,-0.867,0.402
11/26/2023 22:14:04.770,-0.055,-0.852,0.422
11/26/2023 22:14:04.780,-0.121,-0.82,0.426
11/26/2023 22:14:04.790,-0.168,-0.797,0.422
11/26/2023 22:14:04.800,-0.184,-0.777,0.375
11/26/2023 22:14:04.810,-0.172,-0.746,0.301
11/26/2023 22:14:04.820,-0.125,-0.711,0.188
11/26/2023 22:14:04.830,-0.051,-0.684,0.02
11/26/2023 22:14:04.840,0.063,-0.672,-0.066
11/26/2023 22:14:04.850,0.203,-0.73,0.066
11/26/2023 22:14:04.860,0.363,-0.879,0.391
11/26/2023 22:14:04.870,0.555,-1.047,0.73
11/26/2023 22:14:04.880,0.699,-1.16,0.852
11/26/2023 22:14:04.890,0.637,-1.246,0.773
11/26/2023 22:14:04.900,0.379,-1.371,0.598
11/26/2023 22:14:04.910,0.113,-1.516,0.426
11/26/2023 22:14:04.920,0.027,-1.598,0.262
11/26/2023 22:14:04.930,0.035,-1.594,0.164
11/26/2023 22:14:04.940,0.035,-1.531,0.098
11/26/2023 22:14:04.950,0.047,-1.465,-0.023
11/26/2023 22:14:04.960,0.129,-1.445,-0.012
11/26/2023 22:14:04.970,0.266,-1.453,0.109
11/26/2023 22:14:04.980,0.398,-1.418,0.176
11/26/2023 22:14:04.990,0.5,-1.328,0.16
11/26/2023 22:14:05.000,0.566,-1.191,0.129
11/26/2023 22:14:05.010,0.586,-1.059,0.109
11/26/2023 22:14:05.020,0.559,-0.949,0.063
11/26/2023 22:14:05.030,0.512,-0.863,0.016
11/26/2023 22:14:05.040,0.449,-0.793,-0.035
11/26/2023 22:14:05.050,0.352,-0.742,-0.098
11/26/2023 22:14:05.060,0.27,-0.742,-0.109
11/26/2023 22:14:05.070,0.219,-0.801,-0.051
11/26/2023 22:14:05.080,0.195,-0.91,0.043
11/26/2023 22:14:05.090,0.172,-1.02,0.102
11/26/2023 22:14:05.100,0.188,-1.098,0.125
11/26/2023 22:14:05.110,0.246,-1.129,0.148
11/26/2023 22:14:05.120,0.332,-1.117,0.199
11/26/2023 22:14:05.130,0.406,-1.066,0.242
11/26/2023 22:14:05.140,0.453,-0.98,0.254
11/26/2023 22:14:05.150,0.465,-0.852,0.238
11/26/2023 22:14:05.160,0.469,-0.715,0.219
11/26/2023 22:14:05.170,0.461,-0.602,0.211
11/26/2023 22:14:05.180,0.414,-0.523,0.195
11/26/2023 22:14:05.190,0.336,-0.477,0.164
11/26/2023 22:14:05.200,0.23,-0.461,0.129
11/26/2023 22:14:05.210,0.125,-0.469,0.098
11/26/2023 22:14:05.220,0.043,-0.504,0.086
11/26/2023 22:14:05.230,-0.02,-0.563,0.098
11/26/2023 22:14:05.240,-0.055,-0.633,0.113
11/26/2023 22:14:05.250,-0.086,-0.711,0.125
11/26/2023 22:14:05.260,-0.098,-0.781,0.133
11/26/2023 22:14:05.270,-0.121,-0.836,0.141
11/26/2023 22:14:05.280,-0.133,-0.875,0.152
11/26/2023 22:14:05.290,-0.148,-0.91,0.168
11/26/2023 22:14:05.300,-0.145,-0.938,0.191
11/26/2023 22:14:05.310,-0.145,-0.973,0.215
11/26/2023 22:14:05.320,-0.133,-1.023,0.254
11/26/2023 22:14:05.330,-0.109,-1.066,0.285
11/26/2023 22:14:05.340,-0.074,-1.094,0.293
11/26/2023 22:14:05.350,-0.035,-1.105,0.305
11/26/2023 22:14:05.360,0.008,-1.098,0.324
11/26/2023 22:14:05.370,0.051,-1.074,0.352
11/26/2023 22:14:05.380,0.094,-1.039,0.387
11/26/2023 22:14:05.390,0.145,-1.004,0.414
11/26/2023 22:14:05.400,0.184,-0.969,0.422
11/26/2023 22:14:05.410,0.215,-0.941,0.414
11/26/2023 22:14:05.420,0.219,-0.918,0.375
11/26/2023 22:14:05.430,0.188,-0.914,0.324
11/26/2023 22:14:05.440,0.086,-0.922,0.273
11/26/2023 22:14:05.450,-0.07,-0.938,0.234
11/26/2023 22:14:05.460,-0.223,-0.961,0.215
11/26/2023 22:14:05.470,-0.324,-1.016,0.242
11/26/2023 22:14:05.480,-0.359,-1.109,0.316
11/26/2023 22:14:05.490,-0.34,-1.223,0.375
11/26/2023 22:14:05.500,-0.273,-1.348,0.371
11/26/2023 22:14:05.510,-0.105,-1.453,0.352
11/26/2023 22:14:05.520,0.094,-1.5,0.293
11/26/2023 22:14:05.530,0.258,-1.496,0.203
11/26/2023 22:14:05.540,0.434,-1.441,0.133
11/26/2023 22:14:05.550,0.629,-1.371,0.09
11/26/2023 22:14:05.560,0.75,-1.301,-0.02
11/26/2023 22:14:05.570,0.801,-1.219,-0.195
11/26/2023 22:14:05.580,0.797,-1.16,-0.238
11/26/2023 22:14:05.590,0.762,-1.121,0.004
11/26/2023 22:14:05.600,0.797,-1.027,0.324
11/26/2023 22:14:05.610,0.855,-0.852,0.457
11/26/2023 22:14:05.620,0.824,-0.684,0.41
11/26/2023 22:14:05.630,0.672,-0.621,0.285
11/26/2023 22:14:05.640,0.5,-0.691,0.219
11/26/2023 22:14:05.650,0.359,-0.859,0.238
11/26/2023 22:14:05.660,0.234,-1.043,0.262
11/26/2023 22:14:05.670,0.09,-1.168,0.215
11/26/2023 22:14:05.680,-0.078,-1.227,0.137
11/26/2023 22:14:05.690,-0.234,-1.23,0.078
11/26/2023 22:14:05.700,-0.336,-1.203,0.066
11/26/2023 22:14:05.710,-0.375,-1.141,0.066
11/26/2023 22:14:05.720,-0.352,-1.027,0.086
11/26/2023 22:14:05.730,-0.297,-0.891,0.109
11/26/2023 22:14:05.740,-0.219,-0.773,0.145
11/26/2023 22:14:05.750,-0.113,-0.664,0.203
11/26/2023 22:14:05.760,0.012,-0.598,0.281
11/26/2023 22:14:05.770,0.133,-0.57,0.344
11/26/2023 22:14:05.780,0.223,-0.574,0.375
11/26/2023 22:14:05.790,0.285,-0.605,0.383
11/26/2023 22:14:05.800,0.336,-0.656,0.375
11/26/2023 22:14:05.810,0.363,-0.711,0.355
11/26/2023 22:14:05.820,0.375,-0.781,0.332
11/26/2023 22:14:05.830,0.371,-0.848,0.305
11/26/2023 22:14:05.840,0.344,-0.898,0.301
11/26/2023 22:14:05.850,0.305,-0.922,0.316
11/26/2023 22:14:05.860,0.258,-0.918,0.348
11/26/2023 22:14:05.870,0.199,-0.891,0.359
11/26/2023 22:14:05.880,0.137,-0.859,0.352
11/26/2023 22:14:05.890,0.082,-0.824,0.352
11/26/2023 22:14:05.900,0.027,-0.805,0.359
11/26/2023 22:14:05.910,-0.031,-0.801,0.387
11/26/2023 22:14:05.920,-0.086,-0.797,0.438
11/26/2023 22:14:05.930,-0.133,-0.785,0.477
11/26/2023 22:14:05.940,-0.176,-0.766,0.508
11/26/2023 22:14:05.950,-0.211,-0.738,0.492
11/26/2023 22:14:05.960,-0.242,-0.711,0.41
11/26/2023 22:14:05.970,-0.254,-0.68,0.289
11/26/2023 22:14:05.980,-0.211,-0.676,0.148
11/26/2023 22:14:05.990,-0.117,-0.699,0.008
11/26/2023 22:14:06.000,0.027,-0.746,-0.035
11/26/2023 22:14:06.010,0.234,-0.848,0.141
11/26/2023 22:14:06.020,0.449,-1.004,0.469
11/26/2023 22:14:06.030,0.66,-1.176,0.766
11/26/2023 22:14:06.040,0.832,-1.277,0.902
11/26/2023 22:14:06.050,0.809,-1.316,0.867
11/26/2023 22:14:06.060,0.574,-1.344,0.66
11/26/2023 22:14:06.070,0.324,-1.363,0.352
11/26/2023 22:14:06.080,0.207,-1.406,0.109
11/26/2023 22:14:06.090,0.156,-1.461,0.07
11/26/2023 22:14:06.100,0.117,-1.504,0.051
11/26/2023 22:14:06.110,0.109,-1.555,-0.09
11/26/2023 22:14:06.120,0.223,-1.613,-0.082
11/26/2023 22:14:06.130,0.371,-1.629,0.078
11/26/2023 22:14:06.140,0.465,-1.578,0.215
11/26/2023 22:14:06.150,0.543,-1.441,0.246
11/26/2023 22:14:06.160,0.598,-1.227,0.227
11/26/2023 22:14:06.170,0.582,-1.008,0.18
11/26/2023 22:14:06.180,0.504,-0.824,0.113
11/26/2023 22:14:06.190,0.41,-0.664,0.031
11/26/2023 22:14:06.200,0.328,-0.551,-0.055
11/26/2023 22:14:06.210,0.238,-0.504,-0.117
11/26/2023 22:14:06.220,0.172,-0.555,-0.105
11/26/2023 22:14:06.230,0.164,-0.668,-0.02
11/26/2023 22:14:06.240,0.18,-0.82,0.066
11/26/2023 22:14:06.250,0.18,-0.969,0.113
11/26/2023 22:14:06.260,0.18,-1.082,0.125
11/26/2023 22:14:06.270,0.211,-1.152,0.129
11/26/2023 22:14:06.280,0.273,-1.18,0.148
11/26/2023 22:14:06.290,0.336,-1.148,0.18
11/26/2023 22:14:06.300,0.379,-1.063,0.203
11/26/2023 22:14:06.310,0.402,-0.945,0.203
11/26/2023 22:14:06.320,0.418,-0.809,0.195
11/26/2023 22:14:06.330,0.414,-0.695,0.195
11/26/2023 22:14:06.340,0.383,-0.617,0.191
11/26/2023 22:14:06.350,0.324,-0.586,0.176
11/26/2023 22:14:06.360,0.246,-0.594,0.156
11/26/2023 22:14:06.370,0.156,-0.617,0.145
11/26/2023 22:14:06.380,0.074,-0.656,0.133
11/26/2023 22:14:06.390,0.008,-0.703,0.137
11/26/2023 22:14:06.400,-0.039,-0.738,0.129
11/26/2023 22:14:06.410,-0.07,-0.766,0.117
11/26/2023 22:14:06.420,-0.086,-0.793,0.117
11/26/2023 22:14:06.430,-0.094,-0.828,0.133
11/26/2023 22:14:06.440,-0.098,-0.863,0.156
11/26/2023 22:14:06.450,-0.102,-0.891,0.176
11/26/2023 22:14:06.460,-0.102,-0.906,0.195
11/26/2023 22:14:06.470,-0.098,-0.914,0.199
11/26/2023 22:14:06.480,-0.09,-0.918,0.219
11/26/2023 22:14:06.490,-0.078,-0.922,0.242
11/26/2023 22:14:06.500,-0.059,-0.93,0.27
11/26/2023 22:14:06.510,-0.008,-0.926,0.281
11/26/2023 22:14:06.520,0.039,-0.918,0.27
11/26/2023 22:14:06.530,0.09,-0.91,0.262
11/26/2023 22:14:06.540,0.133,-0.906,0.289
11/26/2023 22:14:06.550,0.156,-0.922,0.32
11/26/2023 22:14:06.560,0.176,-0.957,0.328
11/26/2023 22:14:06.570,0.195,-0.969,0.328
11/26/2023 22:14:06.580,0.199,-0.98,0.316
11/26/2023 22:14:06.590,0.188,-1.004,0.293
11/26/2023 22:14:06.600,0.121,-1.016,0.266
11/26/2023 22:14:06.610,0.016,-1.004,0.219
11/26/2023 22:14:06.620,-0.141,-1.012,0.191
11/26/2023 22:14:06.630,-0.262,-1.063,0.242
11/26/2023 22:14:06.640,-0.305,-1.16,0.352
11/26/2023 22:14:06.650,-0.285,-1.289,0.449
11/26/2023 22:14:06.660,-0.207,-1.414,0.43
11/26/2023 22:14:06.670,-0.078,-1.496,0.324
11/26/2023 22:14:06.680,0.07,-1.551,0.234
11/26/2023 22:14:06.690,0.227,-1.57,0.172
11/26/2023 22:14:06.700,0.355,-1.547,0.09
11/26/2023 22:14:06.710,0.508,-1.453,0.004
11/26/2023 22:14:06.720,0.617,-1.328,-0.082
11/26/2023 22:14:06.730,0.656,-1.207,-0.164
11/26/2023 22:14:06.740,0.68,-1.086,-0.168
11/26/2023 22:14:06.750,0.703,-0.996,-0.008
11/26/2023 22:14:06.760,0.742,-0.914,0.223
11/26/2023 22:14:06.770,0.789,-0.824,0.375
11/26/2023 22:14:06.780,0.789,-0.746,0.426
11/26/2023 22:14:06.790,0.711,-0.727,0.379
11/26/2023 22:14:06.800,0.559,-0.785,0.293
11/26/2023 22:14:06.810,0.375,-0.91,0.246
11/26/2023 22:14:06.820,0.215,-1.063,0.219
11/26/2023 22:14:06.830,0.074,-1.191,0.18
11/26/2023 22:14:06.840,-0.066,-1.273,0.121
11/26/2023 22:14:06.850,-0.172,-1.277,0.066
11/26/2023 22:14:06.860,-0.23,-1.227,0.035
11/26/2023 22:14:06.870,-0.242,-1.109,0.043
11/26/2023 22:14:06.880,-0.234,-0.938,0.07
11/26/2023 22:14:06.890,-0.207,-0.75,0.094
11/26/2023 22:14:06.900,-0.168,-0.586,0.117
11/26/2023 22:14:06.910,-0.102,-0.477,0.152
11/26/2023 22:14:06.920,-0.004,-0.441,0.203
11/26/2023 22:14:06.930,0.09,-0.449,0.266
11/26/2023 22:14:06.940,0.18,-0.488,0.316
11/26/2023 22:14:06.950,0.238,-0.531,0.348
11/26/2023 22:14:06.960,0.289,-0.594,0.363
11/26/2023 22:14:06.970,0.316,-0.668,0.344
11/26/2023 22:14:06.980,0.344,-0.75,0.313
11/26/2023 22:14:06.990,0.34,-0.848,0.289
11/26/2023 22:14:07.000,0.316,-0.93,0.273
11/26/2023 22:14:07.010,0.309,-0.992,0.262
11/26/2023 22:14:07.020,0.277,-1.023,0.27
11/26/2023 22:14:07.030,0.227,-1.031,0.301
11/26/2023 22:14:07.040,0.156,-1.027,0.332
11/26/2023 22:14:07.050,0.09,-1.012,0.336
11/26/2023 22:14:07.060,0.023,-0.973,0.336
11/26/2023 22:14:07.070,-0.043,-0.922,0.336
11/26/2023 22:14:07.080,-0.086,-0.859,0.355
11/26/2023 22:14:07.090,-0.125,-0.809,0.391
11/26/2023 22:14:07.100,-0.156,-0.758,0.41
11/26/2023 22:14:07.110,-0.18,-0.715,0.406
11/26/2023 22:14:07.120,-0.199,-0.695,0.359
11/26/2023 22:14:07.130,-0.18,-0.68,0.297
11/26/2023 22:14:07.140,-0.094,-0.66,0.242
11/26/2023 22:14:07.150,-0.012,-0.668,0.156
11/26/2023 22:14:07.160,0.094,-0.691,0.117
11/26/2023 22:14:07.170,0.238,-0.754,0.215
11/26/2023 22:14:07.180,0.41,-0.879,0.445
11/26/2023 22:14:07.190,0.605,-1.043,0.68
11/26/2023 22:14:07.200,0.805,-1.195,0.824
11/26/2023 22:14:07.210,0.836,-1.32,0.805
11/26/2023 22:14:07.220,0.633,-1.406,0.598
11/26/2023 22:14:07.230,0.379,-1.445,0.273
11/26/2023 22:14:07.240,0.215,-1.496,0.09
11/26/2023 22:14:07.250,0.168,-1.547,0.043
11/26/2023 22:14:07.260,0.188,-1.594,-0.016
11/26/2023 22:14:07.270,0.211,-1.676,-0.055
11/26/2023 22:14:07.280,0.262,-1.742,0.023
11/26/2023 22:14:07.290,0.309,-1.734,0.141
11/26/2023 22:14:07.300,0.355,-1.648,0.234
11/26/2023 22:14:07.310,0.398,-1.453,0.262
11/26/2023 22:14:07.320,0.426,-1.188,0.223
11/26/2023 22:14:07.330,0.402,-0.895,0.129
11/26/2023 22:14:07.340,0.344,-0.629,0.027
11/26/2023 22:14:07.350,0.281,-0.441,-0.055
11/26/2023 22:14:07.360,0.215,-0.352,-0.109
11/26/2023 22:14:07.370,0.148,-0.383,-0.105
11/26/2023 22:14:07.380,0.121,-0.516,-0.055
11/26/2023 22:14:07.390,0.117,-0.715,0
11/26/2023 22:14:07.400,0.125,-0.918,0.039
11/26/2023 22:14:07.410,0.148,-1.094,0.063
11/26/2023 22:14:07.420,0.195,-1.223,0.09
11/26/2023 22:14:07.430,0.266,-1.281,0.133
11/26/2023 22:14:07.440,0.348,-1.27,0.172
11/26/2023 22:14:07.450,0.422,-1.191,0.199
11/26/2023 22:14:07.460,0.484,-1.07,0.207
11/26/2023 22:14:07.470,0.52,-0.941,0.211
11/26/2023 22:14:07.480,0.539,-0.805,0.211
11/26/2023 22:14:07.490,0.52,-0.703,0.203
11/26/2023 22:14:07.500,0.453,-0.621,0.184
11/26/2023 22:14:07.510,0.352,-0.578,0.156
11/26/2023 22:14:07.520,0.207,-0.57,0.129
11/26/2023 22:14:07.530,0.082,-0.602,0.117
11/26/2023 22:14:07.540,-0.008,-0.641,0.121
11/26/2023 22:14:07.550,-0.055,-0.68,0.121
11/26/2023 22:14:07.560,-0.105,-0.711,0.113
11/26/2023 22:14:07.570,-0.141,-0.746,0.105
11/26/2023 22:14:07.580,-0.148,-0.773,0.105
11/26/2023 22:14:07.590,-0.145,-0.813,0.121
11/26/2023 22:14:07.600,-0.125,-0.863,0.145
11/26/2023 22:14:07.610,-0.098,-0.895,0.176
11/26/2023 22:14:07.620,-0.086,-0.922,0.195
11/26/2023 22:14:07.630,-0.078,-0.93,0.215
11/26/2023 22:14:07.640,-0.055,-0.93,0.238
11/26/2023 22:14:07.650,-0.031,-0.934,0.262
11/26/2023 22:14:07.660,0,-0.926,0.293
11/26/2023 22:14:07.670,0.039,-0.91,0.313
11/26/2023 22:14:07.680,0.07,-0.902,0.32
11/26/2023 22:14:07.690,0.102,-0.887,0.336
11/26/2023 22:14:07.700,0.125,-0.875,0.34
11/26/2023 22:14:07.710,0.145,-0.871,0.332
11/26/2023 22:14:07.720,0.156,-0.883,0.316
11/26/2023 22:14:07.730,0.141,-0.895,0.281
11/26/2023 22:14:07.740,0.109,-0.926,0.258
11/26/2023 22:14:07.750,0.094,-0.984,0.297
11/26/2023 22:14:07.760,0.066,-1.055,0.348
11/26/2023 22:14:07.770,-0.004,-1.117,0.371
11/26/2023 22:14:07.780,-0.129,-1.172,0.383
11/26/2023 22:14:07.790,-0.246,-1.234,0.402
11/26/2023 22:14:07.800,-0.277,-1.289,0.449
11/26/2023 22:14:07.810,-0.215,-1.344,0.469
11/26/2023 22:14:07.820,-0.094,-1.398,0.43
11/26/2023 22:14:07.830,0.059,-1.434,0.371
11/26/2023 22:14:07.840,0.168,-1.457,0.309
11/26/2023 22:14:07.850,0.223,-1.457,0.203
11/26/2023 22:14:07.860,0.281,-1.43,0.082
11/26/2023 22:14:07.870,0.355,-1.359,-0.051
11/26/2023 22:14:07.880,0.402,-1.262,-0.191
11/26/2023 22:14:07.890,0.43,-1.164,-0.289
11/26/2023 22:14:07.900,0.477,-1.086,-0.27
11/26/2023 22:14:07.910,0.551,-1.023,-0.09
11/26/2023 22:14:07.920,0.641,-0.945,0.141
11/26/2023 22:14:07.930,0.707,-0.859,0.34
11/26/2023 22:14:07.940,0.734,-0.773,0.434
11/26/2023 22:14:07.950,0.719,-0.723,0.43
11/26/2023 22:14:07.960,0.625,-0.738,0.352
11/26/2023 22:14:07.970,0.473,-0.859,0.27
11/26/2023 22:14:07.980,0.285,-1.055,0.211
11/26/2023 22:14:07.990,0.094,-1.23,0.152
11/26/2023 22:14:08.000,-0.07,-1.336,0.098
11/26/2023 22:14:08.010,-0.172,-1.34,0.063
11/26/2023 22:14:08.020,-0.25,-1.289,0.027
11/26/2023 22:14:08.030,-0.297,-1.188,0.023
11/26/2023 22:14:08.040,-0.301,-1.07,0.039
11/26/2023 22:14:08.050,-0.27,-0.949,0.078
11/26/2023 22:14:08.060,-0.207,-0.82,0.125
11/26/2023 22:14:08.070,-0.109,-0.699,0.184
11/26/2023 22:14:08.080,-0.008,-0.613,0.238
11/26/2023 22:14:08.090,0.109,-0.551,0.289
11/26/2023 22:14:08.100,0.199,-0.527,0.324
11/26/2023 22:14:08.110,0.262,-0.535,0.336
11/26/2023 22:14:08.120,0.293,-0.57,0.328
11/26/2023 22:14:08.130,0.316,-0.625,0.309
11/26/2023 22:14:08.140,0.328,-0.691,0.289
11/26/2023 22:14:08.150,0.324,-0.766,0.289
11/26/2023 22:14:08.160,0.313,-0.82,0.293
11/26/2023 22:14:08.170,0.293,-0.863,0.316
11/26/2023 22:14:08.180,0.273,-0.871,0.344
11/26/2023 22:14:08.190,0.23,-0.859,0.367
11/26/2023 22:14:08.200,0.164,-0.852,0.367
11/26/2023 22:14:08.210,0.078,-0.832,0.367
11/26/2023 22:14:08.220,0,-0.824,0.379
11/26/2023 22:14:08.230,-0.07,-0.824,0.41
11/26/2023 22:14:08.240,-0.137,-0.828,0.43
11/26/2023 22:14:08.250,-0.195,-0.816,0.445
11/26/2023 22:14:08.260,-0.242,-0.797,0.438
11/26/2023 22:14:08.270,-0.273,-0.766,0.395
11/26/2023 22:14:08.280,-0.273,-0.73,0.336
11/26/2023 22:14:08.290,-0.223,-0.699,0.289
11/26/2023 22:14:08.300,-0.141,-0.68,0.18
11/26/2023 22:14:08.310,-0.035,-0.664,0.051
11/26/2023 22:14:08.320,0.098,-0.688,0.043
11/26/2023 22:14:08.330,0.25,-0.789,0.262
11/26/2023 22:14:08.340,0.453,-0.934,0.586
11/26/2023 22:14:08.350,0.707,-1.063,0.785
11/26/2023 22:14:08.360,0.852,-1.191,0.816
11/26/2023 22:14:08.370,0.746,-1.371,0.715
11/26/2023 22:14:08.380,0.508,-1.555,0.523
11/26/2023 22:14:08.390,0.328,-1.676,0.305
11/26/2023 22:14:08.400,0.234,-1.707,0.18
11/26/2023 22:14:08.410,0.176,-1.68,0.117
11/26/2023 22:14:08.420,0.125,-1.617,0.031
11/26/2023 22:14:08.430,0.105,-1.563,0.023
11/26/2023 22:14:08.440,0.141,-1.492,0.148
11/26/2023 22:14:08.450,0.188,-1.402,0.25
11/26/2023 22:14:08.460,0.242,-1.285,0.246
11/26/2023 22:14:08.470,0.32,-1.133,0.207
11/26/2023 22:14:08.480,0.371,-0.977,0.176
11/26/2023 22:14:08.490,0.371,-0.855,0.133
11/26/2023 22:14:08.500,0.313,-0.777,0.082
11/26/2023 22:14:08.510,0.281,-0.723,0.035
11/26/2023 22:14:08.520,0.27,-0.676,-0.008
11/26/2023 22:14:08.530,0.246,-0.664,-0.039
11/26/2023 22:14:08.540,0.234,-0.719,-0.043
11/26/2023 22:14:08.550,0.25,-0.828,-0.008
11/26/2023 22:14:08.560,0.27,-0.953,0.047
11/26/2023 22:14:08.570,0.285,-1.078,0.102
11/26/2023 22:14:08.580,0.309,-1.172,0.141
11/26/2023 22:14:08.590,0.352,-1.215,0.18
11/26/2023 22:14:08.600,0.395,-1.191,0.215
11/26/2023 22:14:08.610,0.43,-1.113,0.254
11/26/2023 22:14:08.620,0.438,-1.004,0.258
11/26/2023 22:14:08.630,0.434,-0.867,0.242
11/26/2023 22:14:08.640,0.418,-0.746,0.227
11/26/2023 22:14:08.650,0.383,-0.656,0.207
11/26/2023 22:14:08.660,0.305,-0.605,0.172
11/26/2023 22:14:08.670,0.211,-0.594,0.141
11/26/2023 22:14:08.680,0.109,-0.609,0.121
11/26/2023 22:14:08.690,0.027,-0.648,0.113
11/26/2023 22:14:08.700,-0.035,-0.688,0.121
11/26/2023 22:14:08.710,-0.07,-0.727,0.137
11/26/2023 22:14:08.720,-0.09,-0.758,0.156
11/26/2023 22:14:08.730,-0.094,-0.785,0.168
11/26/2023 22:14:08.740,-0.086,-0.801,0.176
11/26/2023 22:14:08.750,-0.082,-0.816,0.184
11/26/2023 22:14:08.760,-0.074,-0.836,0.195
11/26/2023 22:14:08.770,-0.07,-0.863,0.207
11/26/2023 22:14:08.780,-0.078,-0.891,0.211
11/26/2023 22:14:08.790,-0.082,-0.91,0.215
11/26/2023 22:14:08.800,-0.078,-0.93,0.234
11/26/2023 22:14:08.810,-0.066,-0.938,0.246
11/26/2023 22:14:08.820,-0.051,-0.945,0.273
11/26/2023 22:14:08.830,-0.02,-0.953,0.301
11/26/2023 22:14:08.840,0.012,-0.953,0.332
11/26/2023 22:14:08.850,0.047,-0.938,0.355
11/26/2023 22:14:08.860,0.09,-0.914,0.375
11/26/2023 22:14:08.870,0.121,-0.898,0.383
11/26/2023 22:14:08.880,0.145,-0.895,0.371
11/26/2023 22:14:08.890,0.152,-0.902,0.367
11/26/2023 22:14:08.900,0.133,-0.922,0.359
11/26/2023 22:14:08.910,0.109,-0.965,0.387
11/26/2023 22:14:08.920,0.074,-1.027,0.422
11/26/2023 22:14:08.930,0.008,-1.055,0.41
11/26/2023 22:14:08.940,-0.109,-1.059,0.344
11/26/2023 22:14:08.950,-0.23,-1.07,0.328
11/26/2023 22:14:08.960,-0.285,-1.121,0.379
11/26/2023 22:14:08.970,-0.266,-1.191,0.406
11/26/2023 22:14:08.980,-0.164,-1.285,0.367
11/26/2023 22:14:08.990,-0.008,-1.375,0.313
11/26/2023 22:14:09.000,0.125,-1.445,0.285
11/26/2023 22:14:09.010,0.188,-1.492,0.23
11/26/2023 22:14:09.020,0.234,-1.473,0.102
11/26/2023 22:14:09.030,0.34,-1.371,-0.008
11/26/2023 22:14:09.040,0.426,-1.25,-0.117
11/26/2023 22:14:09.050,0.473,-1.152,-0.191
11/26/2023 22:14:09.060,0.535,-1.066,-0.152
11/26/2023 22:14:09.070,0.621,-0.992,0.004
11/26/2023 22:14:09.080,0.707,-0.91,0.219
11/26/2023 22:14:09.090,0.762,-0.816,0.41
11/26/2023 22:14:09.100,0.762,-0.73,0.496
11/26/2023 22:14:09.110,0.691,-0.672,0.484
11/26/2023 22:14:09.120,0.563,-0.688,0.402
11/26/2023 22:14:09.130,0.395,-0.785,0.277
11/26/2023 22:14:09.140,0.215,-0.941,0.172
11/26/2023 22:14:09.150,0.035,-1.109,0.121
11/26/2023 22:14:09.160,-0.109,-1.254,0.105
11/26/2023 22:14:09.170,-0.215,-1.328,0.105
11/26/2023 22:14:09.180,-0.297,-1.336,0.094
11/26/2023 22:14:09.190,-0.34,-1.281,0.09
11/26/2023 22:14:09.200,-0.324,-1.172,0.117
11/26/2023 22:14:09.210,-0.258,-1.039,0.156
11/26/2023 22:14:09.220,-0.164,-0.91,0.207
11/26/2023 22:14:09.230,-0.055,-0.789,0.246
11/26/2023 22:14:09.240,0.051,-0.707,0.285
11/26/2023 22:14:09.250,0.129,-0.672,0.313
11/26/2023 22:14:09.260,0.176,-0.668,0.328
11/26/2023 22:14:09.270,0.199,-0.688,0.324
11/26/2023 22:14:09.280,0.219,-0.715,0.32
11/26/2023 22:14:09.290,0.23,-0.746,0.316
11/26/2023 22:14:09.300,0.238,-0.781,0.316
11/26/2023 22:14:09.310,0.23,-0.816,0.32
11/26/2023 22:14:09.320,0.227,-0.832,0.336
11/26/2023 22:14:09.330,0.227,-0.828,0.344
11/26/2023 22:14:09.340,0.215,-0.805,0.348
11/26/2023 22:14:09.350,0.172,-0.789,0.359
11/26/2023 22:14:09.360,0.125,-0.785,0.367
11/26/2023 22:14:09.370,0.07,-0.793,0.359
11/26/2023 22:14:09.380,0.016,-0.801,0.359
11/26/2023 22:14:09.390,-0.047,-0.813,0.379
11/26/2023 22:14:09.400,-0.098,-0.82,0.422
11/26/2023 22:14:09.410,-0.133,-0.813,0.457
11/26/2023 22:14:09.420,-0.168,-0.813,0.453
11/26/2023 22:14:09.430,-0.199,-0.793,0.41
11/26/2023 22:14:09.440,-0.219,-0.77,0.348
11/26/2023 22:14:09.450,-0.18,-0.738,0.289
11/26/2023 22:14:09.460,-0.102,-0.719,0.23
11/26/2023 22:14:09.470,-0.008,-0.703,0.105
11/26/2023 22:14:09.480,0.109,-0.703,-0.008
11/26/2023 22:14:09.490,0.246,-0.738,0.039
11/26/2023 22:14:09.500,0.395,-0.84,0.328
11/26/2023 22:14:09.510,0.605,-0.984,0.66
11/26/2023 22:14:09.520,0.773,-1.105,0.836
11/26/2023 22:14:09.530,0.789,-1.207,0.82
11/26/2023 22:14:09.540,0.609,-1.332,0.633
11/26/2023 22:14:09.550,0.379,-1.434,0.363
11/26/2023 22:14:09.560,0.223,-1.516,0.203
11/26/2023 22:14:09.570,0.172,-1.563,0.16
11/26/2023 22:14:09.580,0.164,-1.598,0.113
11/26/2023 22:14:09.590,0.145,-1.645,0.059
11/26/2023 22:14:09.600,0.148,-1.691,0.109
11/26/2023 22:14:09.610,0.203,-1.68,0.234
11/26/2023 22:14:09.620,0.266,-1.602,0.313
11/26/2023 22:14:09.630,0.324,-1.434,0.32
11/26/2023 22:14:09.640,0.379,-1.199,0.277
11/26/2023 22:14:09.650,0.387,-0.941,0.207
11/26/2023 22:14:09.660,0.363,-0.707,0.125
11/26/2023 22:14:09.670,0.313,-0.531,0.047
11/26/2023 22:14:09.680,0.254,-0.41,-0.031
11/26/2023 22:14:09.690,0.176,-0.383,-0.074
11/26/2023 22:14:09.700,0.117,-0.449,-0.082
11/26/2023 22:14:09.710,0.102,-0.605,-0.059
11/26/2023 22:14:09.720,0.125,-0.813,-0.016
11/26/2023 22:14:09.730,0.16,-1.023,0.043
11/26/2023 22:14:09.740,0.195,-1.211,0.109
11/26/2023 22:14:09.750,0.25,-1.344,0.172
11/26/2023 22:14:09.760,0.324,-1.375,0.215
11/26/2023 22:14:09.770,0.41,-1.316,0.242
11/26/2023 22:14:09.780,0.48,-1.188,0.273
11/26/2023 22:14:09.790,0.512,-1.027,0.289
11/26/2023 22:14:09.800,0.516,-0.867,0.273
11/26/2023 22:14:09.810,0.5,-0.734,0.258
11/26/2023 22:14:09.820,0.457,-0.652,0.238
11/26/2023 22:14:09.830,0.359,-0.621,0.211
11/26/2023 22:14:09.840,0.234,-0.629,0.191
11/26/2023 22:14:09.850,0.105,-0.66,0.172
11/26/2023 22:14:09.860,0.008,-0.699,0.16
11/26/2023 22:14:09.870,-0.063,-0.727,0.152
11/26/2023 22:14:09.880,-0.109,-0.75,0.145
11/26/2023 22:14:09.890,-0.129,-0.762,0.145
11/26/2023 22:14:09.900,-0.137,-0.781,0.148
11/26/2023 22:14:09.910,-0.121,-0.789,0.164
11/26/2023 22:14:09.920,-0.102,-0.801,0.191
11/26/2023 22:14:09.930,-0.086,-0.82,0.223
11/26/2023 22:14:09.940,-0.07,-0.848,0.254
11/26/2023 22:14:09.950,-0.051,-0.883,0.281
11/26/2023 22:14:09.960,-0.027,-0.914,0.301
11/26/2023 22:14:09.970,-0.031,-0.941,0.309
11/26/2023 22:14:09.980,-0.031,-0.961,0.313
11/26/2023 22:14:09.990,-0.031,-0.969,0.313
11/26/2023 22:14:10.000,-0.027,-0.973,0.324
11/26/2023 22:14:10.010,0.008,-0.969,0.352
11/26/2023 22:14:10.020,0.039,-0.949,0.367
11/26/2023 22:14:10.030,0.066,-0.926,0.371
11/26/2023 22:14:10.040,0.086,-0.906,0.367
11/26/2023 22:14:10.050,0.109,-0.891,0.34
11/26/2023 22:14:10.060,0.121,-0.879,0.316
11/26/2023 22:14:10.070,0.125,-0.871,0.285
11/26/2023 22:14:10.080,0.137,-0.887,0.285
11/26/2023 22:14:10.090,0.121,-0.926,0.313
11/26/2023 22:14:10.100,0.051,-0.945,0.324
11/26/2023 22:14:10.110,-0.055,-0.973,0.305
11/26/2023 22:14:10.120,-0.137,-1.023,0.336
11/26/2023 22:14:10.130,-0.16,-1.094,0.402
11/26/2023 22:14:10.140,-0.125,-1.168,0.422
11/26/2023 22:14:10.150,-0.031,-1.25,0.402
11/26/2023 22:14:10.160,0.086,-1.34,0.383
11/26/2023 22:14:10.170,0.184,-1.43,0.359
11/26/2023 22:14:10.180,0.238,-1.508,0.309
11/26/2023 22:14:10.190,0.313,-1.535,0.246
11/26/2023 22:14:10.200,0.379,-1.5,0.152
11/26/2023 22:14:10.210,0.387,-1.422,-0.02
11/26/2023 22:14:10.220,0.363,-1.348,-0.184
11/26/2023 22:14:10.230,0.363,-1.277,-0.215
11/26/2023 22:14:10.240,0.406,-1.195,-0.121
11/26/2023 22:14:10.250,0.488,-1.074,0.055
11/26/2023 22:14:10.260,0.563,-0.938,0.227
11/26/2023 22:14:10.270,0.625,-0.797,0.352
11/26/2023 22:14:10.280,0.68,-0.672,0.434
11/26/2023 22:14:10.290,0.691,-0.59,0.469
11/26/2023 22:14:10.300,0.633,-0.566,0.453
11/26/2023 22:14:10.310,0.516,-0.629,0.395
11/26/2023 22:14:10.320,0.363,-0.746,0.32
11/26/2023 22:14:10.330,0.176,-0.879,0.246
11/26/2023 22:14:10.340,-0.004,-0.992,0.18
11/26/2023 22:14:10.350,-0.16,-1.074,0.117
11/26/2023 22:14:10.360,-0.266,-1.121,0.07
11/26/2023 22:14:10.370,-0.32,-1.145,0.055
11/26/2023 22:14:10.380,-0.297,-1.145,0.078
11/26/2023 22:14:10.390,-0.219,-1.133,0.152
11/26/2023 22:14:10.400,-0.137,-1.102,0.23
11/26/2023 22:14:10.410,-0.055,-1.039,0.293
11/26/2023 22:14:10.420,0.039,-0.945,0.332
11/26/2023 22:14:10.430,0.141,-0.844,0.355
11/26/2023 22:14:10.440,0.227,-0.754,0.355
11/26/2023 22:14:10.450,0.273,-0.691,0.336
11/26/2023 22:14:10.460,0.293,-0.672,0.32
11/26/2023 22:14:10.470,0.281,-0.68,0.313
11/26/2023 22:14:10.480,0.27,-0.711,0.324
11/26/2023 22:14:10.490,0.254,-0.734,0.328
11/26/2023 22:14:10.500,0.223,-0.742,0.324
11/26/2023 22:14:10.510,0.203,-0.746,0.34
11/26/2023 22:14:10.520,0.184,-0.75,0.367
11/26/2023 22:14:10.530,0.16,-0.75,0.387
11/26/2023 22:14:10.540,0.125,-0.762,0.387
11/26/2023 22:14:10.550,0.09,-0.77,0.383
11/26/2023 22:14:10.560,0.043,-0.797,0.383
11/26/2023 22:14:10.570,0.008,-0.832,0.391
11/26/2023 22:14:10.580,-0.035,-0.871,0.43
11/26/2023 22:14:10.590,-0.066,-0.895,0.48
11/26/2023 22:14:10.600,-0.098,-0.895,0.516
11/26/2023 22:14:10.610,-0.129,-0.871,0.5
11/26/2023 22:14:10.620,-0.156,-0.828,0.449
11/26/2023 22:14:10.630,-0.148,-0.785,0.375
11/26/2023 22:14:10.640,-0.102,-0.754,0.336
11/26/2023 22:14:10.650,-0.027,-0.738,0.25
11/26/2023 22:14:10.660,0.063,-0.723,0.121
11/26/2023 22:14:10.670,0.184,-0.719,0.074
11/26/2023 22:14:10.680,0.316,-0.781,0.23
11/26/2023 22:14:10.690,0.484,-0.914,0.547
11/26/2023 22:14:10.700,0.68,-1.035,0.789
11/26/2023 22:14:10.710,0.766,-1.117,0.832
11/26/2023 22:14:10.720,0.602,-1.215,0.738
11/26/2023 22:14:10.730,0.281,-1.316,0.605
11/26/2023 22:14:10.740,0.047,-1.379,0.445
11/26/2023 22:14:10.750,-0.027,-1.371,0.316
11/26/2023 22:14:10.760,-0.039,-1.363,0.273
11/26/2023 22:14:10.770,-0.074,-1.391,0.262
11/26/2023 22:14:10.780,-0.066,-1.449,0.176
11/26/2023 22:14:10.790,0.008,-1.512,0.137
11/26/2023 22:14:10.800,0.125,-1.527,0.195
11/26/2023 22:14:10.810,0.242,-1.496,0.266
11/26/2023 22:14:10.820,0.363,-1.387,0.301
11/26/2023 22:14:10.830,0.492,-1.227,0.289
11/26/2023 22:14:10.840,0.574,-1.066,0.242
11/26/2023 22:14:10.850,0.57,-0.934,0.184
11/26/2023 22:14:10.860,0.5,-0.828,0.102
11/26/2023 22:14:10.870,0.418,-0.73,-0.008
11/26/2023 22:14:10.880,0.344,-0.633,-0.102
11/26/2023 22:14:10.890,0.25,-0.559,-0.148
11/26/2023 22:14:10.900,0.176,-0.566,-0.129
11/26/2023 22:14:10.910,0.168,-0.664,-0.043
11/26/2023 22:14:10.920,0.195,-0.824,0.063
11/26/2023 22:14:10.930,0.203,-1.004,0.141
11/26/2023 22:14:10.940,0.211,-1.152,0.191
11/26/2023 22:14:10.950,0.242,-1.223,0.227
11/26/2023 22:14:10.960,0.297,-1.199,0.25
11/26/2023 22:14:10.970,0.344,-1.113,0.27
11/26/2023 22:14:10.980,0.371,-0.992,0.277
11/26/2023 22:14:10.990,0.387,-0.871,0.266
11/26/2023 22:14:11.000,0.379,-0.773,0.254
11/26/2023 22:14:11.010,0.355,-0.707,0.234
11/26/2023 22:14:11.020,0.289,-0.672,0.199
11/26/2023 22:14:11.030,0.191,-0.672,0.168
11/26/2023 22:14:11.040,0.09,-0.703,0.16
11/26/2023 22:14:11.050,0.012,-0.75,0.168
11/26/2023 22:14:11.060,-0.035,-0.781,0.184
11/26/2023 22:14:11.070,-0.059,-0.801,0.195
11/26/2023 22:14:11.080,-0.07,-0.801,0.191
11/26/2023 22:14:11.090,-0.074,-0.797,0.18
11/26/2023 22:14:11.100,-0.059,-0.793,0.176
11/26/2023 22:14:11.110,-0.043,-0.801,0.184
11/26/2023 22:14:11.120,-0.027,-0.816,0.199
11/26/2023 22:14:11.130,-0.012,-0.84,0.227
11/26/2023 22:14:11.140,0.008,-0.871,0.262
11/26/2023 22:14:11.150,0.027,-0.914,0.293
11/26/2023 22:14:11.160,0.047,-0.949,0.316
11/26/2023 22:14:11.170,0.051,-0.977,0.328
11/26/2023 22:14:11.180,0.051,-1,0.336
11/26/2023 22:14:11.190,0.039,-1.023,0.34
11/26/2023 22:14:11.200,0.02,-1.039,0.348
11/26/2023 22:14:11.210,-0.004,-1.039,0.348
11/26/2023 22:14:11.220,-0.02,-1.02,0.352
11/26/2023 22:14:11.230,-0.031,-0.992,0.352
11/26/2023 22:14:11.240,-0.027,-0.973,0.328
11/26/2023 22:14:11.250,-0.016,-0.953,0.305
11/26/2023 22:14:11.260,-0.02,-0.922,0.273
11/26/2023 22:14:11.270,-0.023,-0.914,0.262
11/26/2023 22:14:11.280,-0.008,-0.941,0.301
11/26/2023 22:14:11.290,0.012,-0.973,0.344
11/26/2023 22:14:11.300,-0.004,-0.977,0.348
11/26/2023 22:14:11.310,-0.074,-0.996,0.355
11/26/2023 22:14:11.320,-0.129,-1.031,0.398
11/26/2023 22:14:11.330,-0.117,-1.07,0.473
11/26/2023 22:14:11.340,-0.063,-1.117,0.508
11/26/2023 22:14:11.350,0.023,-1.172,0.465
11/26/2023 22:14:11.360,0.133,-1.234,0.406
11/26/2023 22:14:11.370,0.227,-1.297,0.363
11/26/2023 22:14:11.380,0.27,-1.344,0.293
11/26/2023 22:14:11.390,0.281,-1.371,0.195
11/26/2023 22:14:11.400,0.328,-1.375,0.105
11/26/2023 22:14:11.410,0.383,-1.344,0
11/26/2023 22:14:11.420,0.391,-1.281,-0.141
11/26/2023 22:14:11.430,0.383,-1.199,-0.242
11/26/2023 22:14:11.440,0.414,-1.113,-0.191
11/26/2023 22:14:11.450,0.477,-1.016,0
11/26/2023 22:14:11.460,0.539,-0.902,0.207
11/26/2023 22:14:11.470,0.578,-0.801,0.348
11/26/2023 22:14:11.480,0.586,-0.727,0.402
11/26/2023 22:14:11.490,0.551,-0.668,0.391
11/26/2023 22:14:11.500,0.488,-0.66,0.355
11/26/2023 22:14:11.510,0.402,-0.742,0.32
11/26/2023 22:14:11.520,0.238,-0.875,0.27
11/26/2023 22:14:11.530,0.047,-1.016,0.207
11/26/2023 22:14:11.540,-0.109,-1.133,0.133
11/26/2023 22:14:11.550,-0.223,-1.211,0.063
11/26/2023 22:14:11.560,-0.297,-1.246,0.016
11/26/2023 22:14:11.570,-0.309,-1.246,0.016
11/26/2023 22:14:11.580,-0.25,-1.219,0.078
11/26/2023 22:14:11.590,-0.172,-1.156,0.141
11/26/2023 22:14:11.600,-0.098,-1.059,0.188
11/26/2023 22:14:11.610,-0.031,-0.938,0.223
11/26/2023 22:14:11.620,0.047,-0.824,0.262
11/26/2023 22:14:11.630,0.133,-0.738,0.297
11/26/2023 22:14:11.640,0.211,-0.695,0.32
11/26/2023 22:14:11.650,0.262,-0.691,0.332
11/26/2023 22:14:11.660,0.289,-0.703,0.32
11/26/2023 22:14:11.670,0.297,-0.734,0.297
11/26/2023 22:14:11.680,0.297,-0.77,0.285
11/26/2023 22:14:11.690,0.297,-0.801,0.285
11/26/2023 22:14:11.700,0.285,-0.82,0.301
11/26/2023 22:14:11.710,0.258,-0.832,0.309
11/26/2023 22:14:11.720,0.219,-0.832,0.332
11/26/2023 22:14:11.730,0.172,-0.84,0.34
11/26/2023 22:14:11.740,0.117,-0.844,0.328
11/26/2023 22:14:11.750,0.055,-0.848,0.313
11/26/2023 22:14:11.760,0,-0.848,0.32
11/26/2023 22:14:11.770,-0.039,-0.852,0.355
11/26/2023 22:14:11.780,-0.082,-0.852,0.395
11/26/2023 22:14:11.790,-0.129,-0.844,0.426
11/26/2023 22:14:11.800,-0.18,-0.82,0.438
11/26/2023 22:14:11.810,-0.215,-0.781,0.434
11/26/2023 22:14:11.820,-0.219,-0.734,0.406
11/26/2023 22:14:11.830,-0.199,-0.699,0.336
11/26/2023 22:14:11.840,-0.148,-0.688,0.27
11/26/2023 22:14:11.850,-0.051,-0.703,0.18
11/26/2023 22:14:11.860,0.066,-0.738,0.109
11/26/2023 22:14:11.870,0.223,-0.777,0.121
11/26/2023 22:14:11.880,0.387,-0.859,0.262
11/26/2023 22:14:11.890,0.555,-0.98,0.508
11/26/2023 22:14:11.900,0.723,-1.094,0.711
11/26/2023 22:14:11.910,0.82,-1.188,0.797
11/26/2023 22:14:11.920,0.703,-1.277,0.758
11/26/2023 22:14:11.930,0.41,-1.344,0.59
11/26/2023 22:14:11.940,0.141,-1.379,0.344
11/26/2023 22:14:11.950,0.004,-1.398,0.164
11/26/2023 22:14:11.960,-0.043,-1.438,0.117
11/26/2023 22:14:11.970,-0.074,-1.5,0.098
11/26/2023 22:14:11.980,-0.086,-1.574,0.066
11/26/2023 22:14:11.990,-0.027,-1.629,0.117
11/26/2023 22:14:12.000,0.074,-1.637,0.188
11/26/2023 22:14:12.010,0.223,-1.582,0.238
11/26/2023 22:14:12.020,0.34,-1.438,0.27
11/26/2023 22:14:12.030,0.383,-1.23,0.238
11/26/2023 22:14:12.040,0.375,-1.008,0.184
11/26/2023 22:14:12.050,0.34,-0.793,0.094
11/26/2023 22:14:12.060,0.301,-0.621,-0.012
11/26/2023 22:14:12.070,0.277,-0.492,-0.094
11/26/2023 22:14:12.080,0.258,-0.441,-0.129
11/26/2023 22:14:12.090,0.238,-0.496,-0.094
11/26/2023 22:14:12.100,0.227,-0.648,-0.004
11/26/2023 22:14:12.110,0.25,-0.836,0.074
11/26/2023 22:14:12.120,0.281,-1.016,0.117
11/26/2023 22:14:12.130,0.305,-1.152,0.137
11/26/2023 22:14:12.140,0.344,-1.238,0.164
11/26/2023 22:14:12.150,0.379,-1.266,0.215
11/26/2023 22:14:12.160,0.422,-1.223,0.281
11/26/2023 22:14:12.170,0.449,-1.113,0.316
11/26/2023 22:14:12.180,0.453,-0.969,0.289
11/26/2023 22:14:12.190,0.434,-0.82,0.246
11/26/2023 22:14:12.200,0.383,-0.699,0.203
11/26/2023 22:14:12.210,0.293,-0.633,0.172
11/26/2023 22:14:12.220,0.172,-0.621,0.141
11/26/2023 22:14:12.230,0.063,-0.641,0.137
11/26/2023 22:14:12.240,-0.02,-0.684,0.145
11/26/2023 22:14:12.250,-0.063,-0.73,0.156
11/26/2023 22:14:12.260,-0.086,-0.762,0.16
11/26/2023 22:14:12.270,-0.086,-0.781,0.156
11/26/2023 22:14:12.280,-0.09,-0.789,0.156
11/26/2023 22:14:12.290,-0.082,-0.793,0.156
11/26/2023 22:14:12.300,-0.059,-0.789,0.168
11/26/2023 22:14:12.310,-0.039,-0.781,0.172
11/26/2023 22:14:12.320,-0.02,-0.785,0.18
11/26/2023 22:14:12.330,-0.004,-0.801,0.195
11/26/2023 22:14:12.340,0.008,-0.828,0.219
11/26/2023 22:14:12.350,0.016,-0.863,0.238
11/26/2023 22:14:12.360,0.031,-0.887,0.242
11/26/2023 22:14:12.370,0.047,-0.914,0.246
11/26/2023 22:14:12.380,0.066,-0.941,0.258
11/26/2023 22:14:12.390,0.094,-0.961,0.273
11/26/2023 22:14:12.400,0.121,-0.984,0.305
11/26/2023 22:14:12.410,0.148,-0.988,0.324
11/26/2023 22:14:12.420,0.164,-1,0.332
11/26/2023 22:14:12.430,0.18,-1.004,0.332
11/26/2023 22:14:12.440,0.176,-1,0.324
11/26/2023 22:14:12.450,0.148,-0.992,0.309
11/26/2023 22:14:12.460,0.125,-1,0.293
11/26/2023 22:14:12.470,0.086,-1.008,0.285
11/26/2023 22:14:12.480,-0.008,-0.996,0.258
11/26/2023 22:14:12.490,-0.156,-0.984,0.242
11/26/2023 22:14:12.500,-0.305,-1.016,0.273
11/26/2023 22:14:12.510,-0.332,-1.09,0.363
11/26/2023 22:14:12.520,-0.285,-1.188,0.434
11/26/2023 22:14:12.530,-0.172,-1.285,0.426
11/26/2023 22:14:12.540,-0.008,-1.371,0.391
11/26/2023 22:14:12.550,0.152,-1.426,0.367
11/26/2023 22:14:12.560,0.238,-1.465,0.313
11/26/2023 22:14:12.570,0.316,-1.469,0.227
11/26/2023 22:14:12.580,0.438,-1.418,0.137
11/26/2023 22:14:12.590,0.531,-1.324,0.023
11/26/2023 22:14:12.600,0.539,-1.219,-0.141
11/26/2023 22:14:12.610,0.516,-1.129,-0.234
11/26/2023 22:14:12.620,0.527,-1.039,-0.16
11/26/2023 22:14:12.630,0.566,-0.926,0.02
11/26/2023 22:14:12.640,0.602,-0.793,0.203
11/26/2023 22:14:12.650,0.648,-0.648,0.328
11/26/2023 22:14:12.660,0.676,-0.547,0.402
11/26/2023 22:14:12.670,0.641,-0.527,0.43
11/26/2023 22:14:12.680,0.566,-0.609,0.434
11/26/2023 22:14:12.690,0.457,-0.777,0.383
11/26/2023 22:14:12.700,0.293,-0.992,0.293
11/26/2023 22:14:12.710,0.078,-1.207,0.195
11/26/2023 22:14:12.720,-0.121,-1.367,0.129
11/26/2023 22:14:12.730,-0.246,-1.457,0.098
11/26/2023 22:14:12.740,-0.301,-1.469,0.086
11/26/2023 22:14:12.750,-0.32,-1.41,0.09
11/26/2023 22:14:12.760,-0.297,-1.297,0.105
11/26/2023 22:14:12.770,-0.234,-1.137,0.137
11/26/2023 22:14:12.780,-0.145,-0.961,0.184
11/26/2023 22:14:12.790,-0.047,-0.797,0.23
11/26/2023 22:14:12.800,0.047,-0.668,0.285
11/26/2023 22:14:12.810,0.129,-0.578,0.34
11/26/2023 22:14:12.820,0.191,-0.539,0.383
11/26/2023 22:14:12.830,0.215,-0.535,0.391
11/26/2023 22:14:12.840,0.215,-0.547,0.371
11/26/2023 22:14:12.850,0.207,-0.566,0.34
11/26/2023 22:14:12.860,0.203,-0.598,0.316
11/26/2023 22:14:12.870,0.195,-0.637,0.297
11/26/2023 22:14:12.880,0.18,-0.68,0.285
11/26/2023 22:14:12.890,0.16,-0.715,0.285
11/26/2023 22:14:12.900,0.129,-0.75,0.301
11/26/2023 22:14:12.910,0.105,-0.789,0.32
11/26/2023 22:14:12.920,0.09,-0.813,0.348
11/26/2023 22:14:12.930,0.078,-0.844,0.387
11/26/2023 22:14:12.940,0.066,-0.875,0.418
11/26/2023 22:14:12.950,0.043,-0.898,0.441
11/26/2023 22:14:12.960,0,-0.93,0.477
11/26/2023 22:14:12.970,-0.047,-0.949,0.5
11/26/2023 22:14:12.980,-0.09,-0.949,0.5
11/26/2023 22:14:12.990,-0.121,-0.938,0.477
11/26/2023 22:14:13.000,-0.137,-0.902,0.41
11/26/2023 22:14:13.010,-0.113,-0.867,0.336
11/26/2023 22:14:13.020,-0.074,-0.84,0.23
11/26/2023 22:14:13.030,-0.004,-0.805,0.102
11/26/2023 22:14:13.040,0.102,-0.77,0.055
11/26/2023 22:14:13.050,0.25,-0.789,0.191
11/26/2023 22:14:13.060,0.434,-0.883,0.508
11/26/2023 22:14:13.070,0.629,-0.984,0.789
11/26/2023 22:14:13.080,0.742,-1.059,0.891
11/26/2023 22:14:13.090,0.66,-1.141,0.805
11/26/2023 22:14:13.100,0.438,-1.234,0.551
11/26/2023 22:14:13.110,0.246,-1.309,0.305
11/26/2023 22:14:13.120,0.16,-1.383,0.188
11/26/2023 22:14:13.130,0.141,-1.461,0.137
11/26/2023 22:14:13.140,0.133,-1.566,0.059
11/26/2023 22:14:13.150,0.168,-1.684,0.027
11/26/2023 22:14:13.160,0.238,-1.762,0.117
11/26/2023 22:14:13.170,0.305,-1.77,0.219
11/26/2023 22:14:13.180,0.355,-1.676,0.297
11/26/2023 22:14:13.190,0.418,-1.484,0.328
11/26/2023 22:14:13.200,0.445,-1.227,0.289
11/26/2023 22:14:13.210,0.414,-0.945,0.203
11/26/2023 22:14:13.220,0.344,-0.68,0.098
11/26/2023 22:14:13.230,0.258,-0.477,-0.012
11/26/2023 22:14:13.240,0.168,-0.363,-0.086
11/26/2023 22:14:13.250,0.102,-0.34,-0.105
11/26/2023 22:14:13.260,0.063,-0.422,-0.082
11/26/2023 22:14:13.270,0.063,-0.578,-0.047
11/26/2023 22:14:13.280,0.102,-0.77,0
11/26/2023 22:14:13.290,0.148,-0.973,0.059
11/26/2023 22:14:13.300,0.176,-1.16,0.121
11/26/2023 22:14:13.310,0.215,-1.297,0.188
11/26/2023 22:14:13.320,0.27,-1.34,0.234
11/26/2023 22:14:13.330,0.336,-1.281,0.254
11/26/2023 22:14:13.340,0.391,-1.164,0.27
11/26/2023 22:14:13.350,0.414,-1.023,0.258
11/26/2023 22:14:13.360,0.426,-0.879,0.234
11/26/2023 22:14:13.370,0.426,-0.773,0.215
11/26/2023 22:14:13.380,0.395,-0.699,0.191
11/26/2023 22:14:13.390,0.313,-0.672,0.172
11/26/2023 22:14:13.400,0.199,-0.676,0.176
11/26/2023 22:14:13.410,0.094,-0.684,0.188
11/26/2023 22:14:13.420,0.012,-0.703,0.191
11/26/2023 22:14:13.430,-0.043,-0.715,0.184
11/26/2023 22:14:13.440,-0.082,-0.719,0.176
11/26/2023 22:14:13.450,-0.098,-0.719,0.16
11/26/2023 22:14:13.460,-0.105,-0.734,0.164
11/26/2023 22:14:13.470,-0.094,-0.754,0.184
11/26/2023 22:14:13.480,-0.074,-0.777,0.199
11/26/2023 22:14:13.490,-0.059,-0.801,0.215
11/26/2023 22:14:13.500,-0.059,-0.828,0.234
11/26/2023 22:14:13.510,-0.027,-0.863,0.246
11/26/2023 22:14:13.520,0,-0.895,0.246
11/26/2023 22:14:13.530,0.02,-0.934,0.254
11/26/2023 22:14:13.540,0.035,-0.977,0.273
11/26/2023 22:14:13.550,0.055,-1.012,0.309
11/26/2023 22:14:13.560,0.082,-1.023,0.332
11/26/2023 22:14:13.570,0.105,-1.016,0.344
11/26/2023 22:14:13.580,0.137,-0.988,0.363
11/26/2023 22:14:13.590,0.172,-0.965,0.383
11/26/2023 22:14:13.600,0.203,-0.945,0.383
11/26/2023 22:14:13.610,0.223,-0.93,0.348
11/26/2023 22:14:13.620,0.227,-0.906,0.316
11/26/2023 22:14:13.630,0.203,-0.891,0.277
11/26/2023 22:14:13.640,0.172,-0.898,0.273
11/26/2023 22:14:13.650,0.105,-0.91,0.297
11/26/2023 22:14:13.660,-0.016,-0.922,0.285
11/26/2023 22:14:13.670,-0.156,-0.961,0.289
11/26/2023 22:14:13.680,-0.234,-1.023,0.367
11/26/2023 22:14:13.690,-0.215,-1.074,0.457
11/26/2023 22:14:13.700,-0.152,-1.113,0.48
11/26/2023 22:14:13.710,-0.043,-1.168,0.418
11/26/2023 22:14:13.720,0.074,-1.227,0.324
11/26/2023 22:14:13.730,0.16,-1.301,0.242
11/26/2023 22:14:13.740,0.223,-1.352,0.133
11/26/2023 22:14:13.750,0.324,-1.359,0.023
11/26/2023 22:14:13.760,0.465,-1.332,-0.027
11/26/2023 22:14:13.770,0.555,-1.297,-0.086
11/26/2023 22:14:13.780,0.57,-1.254,-0.164
11/26/2023 22:14:13.790,0.57,-1.199,-0.148
11/26/2023 22:14:13.800,0.613,-1.129,0.008
11/26/2023 22:14:13.810,0.707,-1.023,0.211
11/26/2023 22:14:13.820,0.797,-0.898,0.355
11/26/2023 22:14:13.830,0.836,-0.785,0.402
11/26/2023 22:14:13.840,0.773,-0.754,0.359
11/26/2023 22:14:13.850,0.625,-0.82,0.277
11/26/2023 22:14:13.860,0.461,-0.969,0.246
11/26/2023 22:14:13.870,0.297,-1.148,0.262
11/26/2023 22:14:13.880,0.125,-1.305,0.234
11/26/2023 22:14:13.890,-0.047,-1.371,0.152
11/26/2023 22:14:13.900,-0.207,-1.355,0.066
11/26/2023 22:14:13.910,-0.32,-1.301,0.023
11/26/2023 22:14:13.920,-0.367,-1.227,0.031
11/26/2023 22:14:13.930,-0.359,-1.129,0.066
11/26/2023 22:14:13.940,-0.332,-1.023,0.105
11/26/2023 22:14:13.950,-0.281,-0.91,0.148
11/26/2023 22:14:13.960,-0.191,-0.797,0.184
11/26/2023 22:14:13.970,-0.066,-0.703,0.219
11/26/2023 22:14:13.980,0.059,-0.637,0.246
11/26/2023 22:14:13.990,0.18,-0.613,0.285
11/26/2023 22:14:14.000,0.266,-0.625,0.313
11/26/2023 22:14:14.010,0.355,-0.66,0.336
11/26/2023 22:14:14.020,0.414,-0.707,0.348
11/26/2023 22:14:14.030,0.438,-0.742,0.348
11/26/2023 22:14:14.040,0.426,-0.766,0.332
11/26/2023 22:14:14.050,0.383,-0.777,0.313
11/26/2023 22:14:14.060,0.316,-0.789,0.301
11/26/2023 22:14:14.070,0.246,-0.805,0.285
11/26/2023 22:14:14.080,0.176,-0.801,0.281
11/26/2023 22:14:14.090,0.094,-0.805,0.297
11/26/2023 22:14:14.100,0.023,-0.82,0.332
11/26/2023 22:14:14.110,-0.043,-0.828,0.359
11/26/2023 22:14:14.120,-0.09,-0.824,0.367
11/26/2023 22:14:14.130,-0.145,-0.813,0.355
11/26/2023 22:14:14.140,-0.184,-0.793,0.355
11/26/2023 22:14:14.150,-0.18,-0.766,0.375
11/26/2023 22:14:14.160,-0.145,-0.738,0.395
11/26/2023 22:14:14.170,-0.109,-0.715,0.395
11/26/2023 22:14:14.180,-0.07,-0.703,0.375
11/26/2023 22:14:14.190,-0.035,-0.723,0.344
11/26/2023 22:14:14.200,0.008,-0.758,0.301
11/26/2023 22:14:14.210,0.059,-0.824,0.258
11/26/2023 22:14:14.220,0.105,-0.898,0.23
11/26/2023 22:14:14.230,0.164,-0.984,0.254
11/26/2023 22:14:14.240,0.25,-1.074,0.34
11/26/2023 22:14:14.250,0.348,-1.152,0.457
11/26/2023 22:14:14.260,0.449,-1.227,0.555
11/26/2023 22:14:14.270,0.512,-1.289,0.637
11/26/2023 22:14:14.280,0.469,-1.332,0.688
11/26/2023 22:14:14.290,0.34,-1.328,0.672
11/26/2023 22:14:14.300,0.207,-1.254,0.539
11/26/2023 22:14:14.310,0.117,-1.137,0.316
11/26/2023 22:14:14.320,0.074,-1.059,0.164
11/26/2023 22:14:14.330,0.078,-1.066,0.156
11/26/2023 22:14:14.340,0.121,-1.129,0.191
11/26/2023 22:14:14.350,0.195,-1.258,0.207
11/26/2023 22:14:14.360,0.285,-1.391,0.254
11/26/2023 22:14:14.370,0.352,-1.473,0.359
11/26/2023 22:14:14.380,0.367,-1.473,0.41
11/26/2023 22:14:14.390,0.367,-1.402,0.355
11/26/2023 22:14:14.400,0.363,-1.262,0.25
11/26/2023 22:14:14.410,0.348,-1.078,0.137
11/26/2023 22:14:14.420,0.313,-0.898,0.02
11/26/2023 22:14:14.430,0.25,-0.773,-0.066
11/26/2023 22:14:14.440,0.191,-0.719,-0.098
11/26/2023 22:14:14.450,0.133,-0.715,-0.109
11/26/2023 22:14:14.460,0.121,-0.742,-0.105
11/26/2023 22:14:14.470,0.164,-0.789,-0.07
11/26/2023 22:14:14.480,0.238,-0.863,-0.012
11/26/2023 22:14:14.490,0.313,-0.953,0.074
11/26/2023 22:14:14.500,0.352,-1.043,0.133
11/26/2023 22:14:14.510,0.363,-1.109,0.172
11/26/2023 22:14:14.520,0.375,-1.129,0.199
11/26/2023 22:14:14.530,0.402,-1.094,0.234
11/26/2023 22:14:14.540,0.414,-1.035,0.254
11/26/2023 22:14:14.550,0.402,-0.973,0.258
11/26/2023 22:14:14.560,0.359,-0.922,0.262
11/26/2023 22:14:14.570,0.293,-0.902,0.246
11/26/2023 22:14:14.580,0.211,-0.891,0.215
11/26/2023 22:14:14.590,0.133,-0.879,0.188
11/26/2023 22:14:14.600,0.063,-0.867,0.16
11/26/2023 22:14:14.610,0.004,-0.859,0.152
11/26/2023 22:14:14.620,-0.031,-0.855,0.152
11/26/2023 22:14:14.630,-0.039,-0.836,0.164
11/26/2023 22:14:14.640,-0.031,-0.813,0.18
11/26/2023 22:14:14.650,-0.012,-0.777,0.199
11/26/2023 22:14:14.660,0.012,-0.746,0.219
11/26/2023 22:14:14.670,0.039,-0.723,0.238
11/26/2023 22:14:14.680,0.055,-0.711,0.266
11/26/2023 22:14:14.690,0.066,-0.707,0.297
11/26/2023 22:14:14.700,0.063,-0.715,0.297
11/26/2023 22:14:14.710,0.059,-0.742,0.277
11/26/2023 22:14:14.720,0.059,-0.777,0.262
11/26/2023 22:14:14.730,0.066,-0.836,0.258
11/26/2023 22:14:14.740,0.078,-0.891,0.27
11/26/2023 22:14:14.750,0.086,-0.941,0.285
11/26/2023 22:14:14.760,0.094,-0.957,0.289
11/26/2023 22:14:14.770,0.098,-0.965,0.281
11/26/2023 22:14:14.780,0.098,-0.953,0.281
11/26/2023 22:14:14.790,0.098,-0.93,0.281
11/26/2023 22:14:14.800,0.102,-0.91,0.293
11/26/2023 22:14:14.810,0.113,-0.883,0.309
11/26/2023 22:14:14.820,0.125,-0.867,0.316
11/26/2023 22:14:14.830,0.129,-0.867,0.328
11/26/2023 22:14:14.840,0.121,-0.891,0.344
11/26/2023 22:14:14.850,0.109,-0.914,0.352
11/26/2023 22:14:14.860,0.094,-0.945,0.344
11/26/2023 22:14:14.870,0.066,-0.988,0.344
11/26/2023 22:14:14.880,0.023,-1.035,0.355
11/26/2023 22:14:14.890,-0.039,-1.09,0.363
11/26/2023 22:14:14.900,-0.117,-1.125,0.355
11/26/2023 22:14:14.910,-0.211,-1.129,0.32
11/26/2023 22:14:14.920,-0.293,-1.102,0.262
11/26/2023 22:14:14.930,-0.344,-1.051,0.227
11/26/2023 22:14:14.940,-0.395,-0.984,0.195
11/26/2023 22:14:14.950,-0.449,-0.957,0.164
11/26/2023 22:14:14.960,-0.438,-0.973,0.18
11/26/2023 22:14:14.970,-0.332,-1.039,0.25
11/26/2023 22:14:14.980,-0.168,-1.129,0.289
11/26/2023 22:14:14.990,0.004,-1.211,0.266
11/26/2023 22:14:15.000,0.063,-1.277,0.094
11/26/2023 22:14:15.010,0.055,-1.336,-0.172
11/26/2023 22:14:15.020,0.102,-1.43,-0.316
11/26/2023 22:14:15.030,0.254,-1.551,-0.266
11/26/2023 22:14:15.040,0.438,-1.66,-0.152
11/26/2023 22:14:15.050,0.582,-1.695,-0.074
11/26/2023 22:14:15.060,0.688,-1.625,0.023
11/26/2023 22:14:15.070,0.797,-1.461,0.18
11/26/2023 22:14:15.080,0.918,-1.242,0.371
11/26/2023 22:14:15.090,1.02,-0.992,0.508
11/26/2023 22:14:15.100,1.059,-0.723,0.523
11/26/2023 22:14:15.110,0.973,-0.508,0.469
11/26/2023 22:14:15.120,0.738,-0.438,0.391
11/26/2023 22:14:15.130,0.461,-0.527,0.328
11/26/2023 22:14:15.140,0.242,-0.715,0.281
11/26/2023 22:14:15.150,0.063,-0.906,0.227
11/26/2023 22:14:15.160,-0.102,-1.059,0.18
11/26/2023 22:14:15.170,-0.191,-1.148,0.16
11/26/2023 22:14:15.180,-0.191,-1.199,0.168
11/26/2023 22:14:15.190,-0.141,-1.219,0.184
11/26/2023 22:14:15.200,-0.098,-1.215,0.191
11/26/2023 22:14:15.210,-0.066,-1.184,0.203
11/26/2023 22:14:15.220,-0.027,-1.125,0.227
11/26/2023 22:14:15.230,0.043,-1.023,0.25
11/26/2023 22:14:15.240,0.113,-0.91,0.266
11/26/2023 22:14:15.250,0.156,-0.797,0.27
11/26/2023 22:14:15.260,0.164,-0.691,0.262
11/26/2023 22:14:15.270,0.164,-0.602,0.25
11/26/2023 22:14:15.280,0.16,-0.531,0.25
11/26/2023 22:14:15.290,0.145,-0.492,0.25
11/26/2023 22:14:15.300,0.129,-0.473,0.258
11/26/2023 22:14:15.310,0.113,-0.477,0.277
11/26/2023 22:14:15.320,0.105,-0.5,0.285
11/26/2023 22:14:15.330,0.102,-0.539,0.289
11/26/2023 22:14:15.340,0.105,-0.586,0.313
11/26/2023 22:14:15.350,0.113,-0.648,0.332
11/26/2023 22:14:15.360,0.121,-0.707,0.348
11/26/2023 22:14:15.370,0.113,-0.758,0.371
11/26/2023 22:14:15.380,0.102,-0.801,0.402
11/26/2023 22:14:15.390,0.074,-0.836,0.445
11/26/2023 22:14:15.400,0.02,-0.867,0.465
11/26/2023 22:14:15.410,-0.051,-0.887,0.461
11/26/2023 22:14:15.420,-0.113,-0.887,0.438
11/26/2023 22:14:15.430,-0.16,-0.895,0.402
11/26/2023 22:14:15.440,-0.176,-0.902,0.34
11/26/2023 22:14:15.450,-0.152,-0.922,0.277
11/26/2023 22:14:15.460,-0.082,-0.938,0.242
11/26/2023 22:14:15.470,0.023,-0.953,0.203
11/26/2023 22:14:15.480,0.148,-0.957,0.191
11/26/2023 22:14:15.490,0.277,-0.969,0.293
11/26/2023 22:14:15.500,0.422,-1.008,0.523
11/26/2023 22:14:15.510,0.621,-1.063,0.738
11/26/2023 22:14:15.520,0.797,-1.098,0.844
11/26/2023 22:14:15.530,0.77,-1.168,0.852
11/26/2023 22:14:15.540,0.547,-1.246,0.758
11/26/2023 22:14:15.550,0.301,-1.262,0.582
11/26/2023 22:14:15.560,0.141,-1.199,0.367
11/26/2023 22:14:15.570,0.023,-1.152,0.195
11/26/2023 22:14:15.580,-0.082,-1.172,0.109
11/26/2023 22:14:15.590,-0.125,-1.285,0.094
11/26/2023 22:14:15.600,-0.043,-1.457,0.191
11/26/2023 22:14:15.610,0.094,-1.609,0.34
11/26/2023 22:14:15.620,0.188,-1.66,0.426
11/26/2023 22:14:15.630,0.25,-1.574,0.391
11/26/2023 22:14:15.640,0.313,-1.371,0.316
11/26/2023 22:14:15.650,0.375,-1.129,0.254
11/26/2023 22:14:15.660,0.371,-0.906,0.148
11/26/2023 22:14:15.670,0.309,-0.738,0.008
11/26/2023 22:14:15.680,0.227,-0.633,-0.102
11/26/2023 22:14:15.690,0.145,-0.578,-0.16
11/26/2023 22:14:15.700,0.078,-0.59,-0.168
11/26/2023 22:14:15.710,0.063,-0.676,-0.133
11/26/2023 22:14:15.720,0.109,-0.828,-0.055
11/26/2023 22:14:15.730,0.18,-0.996,0.055
11/26/2023 22:14:15.740,0.23,-1.137,0.152
11/26/2023 22:14:15.750,0.262,-1.207,0.203
11/26/2023 22:14:15.760,0.313,-1.195,0.215
11/26/2023 22:14:15.770,0.395,-1.121,0.234
11/26/2023 22:14:15.780,0.48,-1.016,0.277
11/26/2023 22:14:15.790,0.516,-0.914,0.305
11/26/2023 22:14:15.800,0.504,-0.832,0.297
11/26/2023 22:14:15.810,0.469,-0.777,0.27
11/26/2023 22:14:15.820,0.41,-0.75,0.242
11/26/2023 22:14:15.830,0.309,-0.75,0.199
11/26/2023 22:14:15.840,0.164,-0.762,0.164
11/26/2023 22:14:15.850,0.031,-0.789,0.133
11/26/2023 22:14:15.860,-0.086,-0.816,0.117
11/26/2023 22:14:15.870,-0.148,-0.836,0.129
11/26/2023 22:14:15.880,-0.172,-0.852,0.137
11/26/2023 22:14:15.890,-0.176,-0.844,0.145
11/26/2023 22:14:15.900,-0.152,-0.82,0.156
11/26/2023 22:14:15.910,-0.113,-0.797,0.176
11/26/2023 22:14:15.920,-0.059,-0.762,0.207
11/26/2023 22:14:15.930,-0.012,-0.734,0.238
11/26/2023 22:14:15.940,0.02,-0.727,0.254
11/26/2023 22:14:15.950,0.043,-0.73,0.27
11/26/2023 22:14:15.960,0.055,-0.746,0.277
11/26/2023 22:14:15.970,0.059,-0.781,0.273
11/26/2023 22:14:15.980,0.059,-0.832,0.273
11/26/2023 22:14:15.990,0.051,-0.891,0.27
11/26/2023 22:14:16.000,0.035,-0.945,0.266
11/26/2023 22:14:16.010,0.039,-1.012,0.281
11/26/2023 22:14:16.020,0.047,-1.055,0.309
11/26/2023 22:14:16.030,0.059,-1.078,0.348
11/26/2023 22:14:16.040,0.078,-1.086,0.375
11/26/2023 22:14:16.050,0.105,-1.066,0.387
11/26/2023 22:14:16.060,0.156,-1.031,0.379
11/26/2023 22:14:16.070,0.195,-0.973,0.348
11/26/2023 22:14:16.080,0.191,-0.922,0.289
11/26/2023 22:14:16.090,0.113,-0.867,0.203
11/26/2023 22:14:16.100,-0.02,-0.797,0.105
11/26/2023 22:14:16.110,-0.168,-0.785,0.078
11/26/2023 22:14:16.120,-0.246,-0.848,0.152
11/26/2023 22:14:16.130,-0.227,-0.941,0.285
11/26/2023 22:14:16.140,-0.16,-1.047,0.387
11/26/2023 22:14:16.150,-0.094,-1.133,0.434
11/26/2023 22:14:16.160,0,-1.234,0.477
11/26/2023 22:14:16.170,0.16,-1.313,0.508
11/26/2023 22:14:16.180,0.297,-1.336,0.434
11/26/2023 22:14:16.190,0.324,-1.34,0.219
11/26/2023 22:14:16.200,0.285,-1.363,-0.008
11/26/2023 22:14:16.210,0.25,-1.414,-0.168
11/26/2023 22:14:16.220,0.238,-1.453,-0.254
11/26/2023 22:14:16.230,0.277,-1.469,-0.254
11/26/2023 22:14:16.240,0.379,-1.426,-0.102
11/26/2023 22:14:16.250,0.52,-1.336,0.137
11/26/2023 22:14:16.260,0.676,-1.16,0.352
11/26/2023 22:14:16.270,0.816,-0.953,0.484
11/26/2023 22:14:16.280,0.883,-0.766,0.551
11/26/2023 22:14:16.290,0.867,-0.664,0.547
11/26/2023 22:14:16.300,0.762,-0.637,0.484
11/26/2023 22:14:16.310,0.57,-0.695,0.367
11/26/2023 22:14:16.320,0.32,-0.82,0.238
11/26/2023 22:14:16.330,0.105,-0.988,0.18
11/26/2023 22:14:16.340,-0.055,-1.152,0.184
11/26/2023 22:14:16.350,-0.168,-1.27,0.188
11/26/2023 22:14:16.360,-0.258,-1.309,0.168
11/26/2023 22:14:16.370,-0.301,-1.293,0.148
11/26/2023 22:14:16.380,-0.281,-1.246,0.16
11/26/2023 22:14:16.390,-0.23,-1.18,0.203
11/26/2023 22:14:16.400,-0.168,-1.102,0.246
11/26/2023 22:14:16.410,-0.078,-1.004,0.281
11/26/2023 22:14:16.420,0.027,-0.895,0.297
11/26/2023 22:14:16.430,0.121,-0.781,0.297
11/26/2023 22:14:16.440,0.191,-0.691,0.293
11/26/2023 22:14:16.450,0.219,-0.637,0.305
11/26/2023 22:14:16.460,0.223,-0.59,0.316
11/26/2023 22:14:16.470,0.223,-0.563,0.316
11/26/2023 22:14:16.480,0.211,-0.539,0.297
11/26/2023 22:14:16.490,0.199,-0.52,0.27
11/26/2023 22:14:16.500,0.16,-0.516,0.266
11/26/2023 22:14:16.510,0.148,-0.535,0.285
11/26/2023 22:14:16.520,0.125,-0.574,0.301
11/26/2023 22:14:16.530,0.102,-0.625,0.313
11/26/2023 22:14:16.540,0.074,-0.68,0.305
11/26/2023 22:14:16.550,0.035,-0.727,0.293
11/26/2023 22:14:16.560,0.008,-0.773,0.293
11/26/2023 22:14:16.570,-0.02,-0.84,0.332
11/26/2023 22:14:16.580,-0.031,-0.902,0.395
11/26/2023 22:14:16.590,-0.055,-0.949,0.426
11/26/2023 22:14:16.600,-0.086,-0.977,0.422
11/26/2023 22:14:16.610,-0.109,-0.992,0.387
11/26/2023 22:14:16.620,-0.102,-0.977,0.324
11/26/2023 22:14:16.630,-0.039,-0.938,0.27
11/26/2023 22:14:16.640,0.047,-0.902,0.25
11/26/2023 22:14:16.650,0.133,-0.891,0.277
11/26/2023 22:14:16.660,0.195,-0.891,0.316
11/26/2023 22:14:16.670,0.23,-0.895,0.328
11/26/2023 22:14:16.680,0.238,-0.898,0.34
11/26/2023 22:14:16.690,0.246,-0.914,0.383
11/26/2023 22:14:16.700,0.266,-0.949,0.465
11/26/2023 22:14:16.710,0.262,-0.996,0.551
11/26/2023 22:14:16.720,0.184,-1.055,0.59
11/26/2023 22:14:16.730,0.055,-1.102,0.582
11/26/2023 22:14:16.740,-0.055,-1.125,0.508
11/26/2023 22:14:16.750,-0.113,-1.121,0.328
11/26/2023 22:14:16.760,-0.109,-1.109,0.129
11/26/2023 22:14:16.770,-0.074,-1.141,0.008
11/26/2023 22:14:16.780,0.039,-1.262,-0.004
11/26/2023 22:14:16.790,0.25,-1.43,0.02
11/26/2023 22:14:16.800,0.523,-1.605,0.078
11/26/2023 22:14:16.810,0.789,-1.75,0.203
11/26/2023 22:14:16.820,0.957,-1.832,0.324
11/26/2023 22:14:16.830,0.949,-1.785,0.367
11/26/2023 22:14:16.840,0.852,-1.59,0.277
11/26/2023 22:14:16.850,0.77,-1.262,0.141
11/26/2023 22:14:16.860,0.711,-0.875,0.023
11/26/2023 22:14:16.870,0.594,-0.527,-0.086
11/26/2023 22:14:16.880,0.414,-0.285,-0.164
11/26/2023 22:14:16.890,0.238,-0.203,-0.164
11/26/2023 22:14:16.900,0.125,-0.301,-0.094
11/26/2023 22:14:16.910,0.113,-0.512,-0.004
11/26/2023 22:14:16.920,0.164,-0.773,0.059
11/26/2023 22:14:16.930,0.234,-1.023,0.07
11/26/2023 22:14:16.940,0.305,-1.199,0.066
11/26/2023 22:14:16.950,0.355,-1.309,0.059
11/26/2023 22:14:16.960,0.395,-1.344,0.059
11/26/2023 22:14:16.970,0.426,-1.313,0.078
11/26/2023 22:14:16.980,0.469,-1.23,0.113
11/26/2023 22:14:16.990,0.523,-1.125,0.133
11/26/2023 22:14:17.000,0.539,-1.02,0.141
11/26/2023 22:14:17.010,0.527,-0.934,0.133
11/26/2023 22:14:17.020,0.461,-0.875,0.109
11/26/2023 22:14:17.030,0.367,-0.836,0.09
11/26/2023 22:14:17.040,0.27,-0.809,0.074
11/26/2023 22:14:17.050,0.195,-0.773,0.063
11/26/2023 22:14:17.060,0.133,-0.742,0.047
11/26/2023 22:14:17.070,0.09,-0.719,0.035
11/26/2023 22:14:17.080,0.07,-0.699,0.02
11/26/2023 22:14:17.090,0.059,-0.695,0.012
11/26/2023 22:14:17.100,0.059,-0.715,0.02
11/26/2023 22:14:17.110,0.078,-0.734,0.039
11/26/2023 22:14:17.120,0.113,-0.766,0.059
11/26/2023 22:14:17.130,0.16,-0.793,0.082
11/26/2023 22:14:17.140,0.203,-0.832,0.117
11/26/2023 22:14:17.150,0.238,-0.867,0.137
11/26/2023 22:14:17.160,0.281,-0.922,0.16
11/26/2023 22:14:17.170,0.313,-0.988,0.191
11/26/2023 22:14:17.180,0.328,-1.059,0.207
11/26/2023 22:14:17.190,0.324,-1.113,0.207
11/26/2023 22:14:17.200,0.316,-1.141,0.18
11/26/2023 22:14:17.210,0.305,-1.148,0.152
11/26/2023 22:14:17.220,0.277,-1.133,0.125
11/26/2023 22:14:17.230,0.242,-1.105,0.113
11/26/2023 22:14:17.240,0.207,-1.074,0.109
11/26/2023 22:14:17.250,0.168,-1.035,0.098
11/26/2023 22:14:17.260,0.133,-1.004,0.074
11/26/2023 22:14:17.270,0.102,-0.965,0.035
11/26/2023 22:14:17.280,0.078,-0.93,0.004
11/26/2023 22:14:17.290,0.063,-0.898,-0.023
11/26/2023 22:14:17.300,0.055,-0.879,-0.039
11/26/2023 22:14:17.310,0.063,-0.879,-0.027
11/26/2023 22:14:17.320,0.09,-0.891,-0.02
11/26/2023 22:14:17.330,0.16,-0.895,-0.039
11/26/2023 22:14:17.340,0.27,-0.867,-0.059
11/26/2023 22:14:17.350,0.383,-0.828,-0.051
11/26/2023 22:14:17.360,0.469,-0.832,0.078
11/26/2023 22:14:17.370,0.57,-0.859,0.27
11/26/2023 22:14:17.380,0.68,-0.871,0.367
11/26/2023 22:14:17.390,0.719,-0.871,0.316
11/26/2023 22:14:17.400,0.715,-0.898,0.266
11/26/2023 22:14:17.410,0.707,-0.992,0.309
11/26/2023 22:14:17.420,0.684,-1.141,0.383
11/26/2023 22:14:17.430,0.629,-1.254,0.418
11/26/2023 22:14:17.440,0.527,-1.313,0.398
11/26/2023 22:14:17.450,0.402,-1.332,0.371
11/26/2023 22:14:17.460,0.281,-1.332,0.359
11/26/2023 22:14:17.470,0.203,-1.324,0.363
11/26/2023 22:14:17.480,0.156,-1.305,0.363
11/26/2023 22:14:17.490,0.141,-1.25,0.352
11/26/2023 22:14:17.500,0.148,-1.148,0.324
11/26/2023 22:14:17.510,0.176,-1.023,0.313
11/26/2023 22:14:17.520,0.211,-0.898,0.316
11/26/2023 22:14:17.530,0.262,-0.785,0.336
11/26/2023 22:14:17.540,0.313,-0.68,0.359
11/26/2023 22:14:17.550,0.344,-0.594,0.383
11/26/2023 22:14:17.560,0.359,-0.516,0.398
11/26/2023 22:14:17.570,0.363,-0.457,0.406
11/26/2023 22:14:17.580,0.359,-0.418,0.398
11/26/2023 22:14:17.590,0.328,-0.406,0.398
11/26/2023 22:14:17.600,0.281,-0.445,0.41
11/26/2023 22:14:17.610,0.258,-0.523,0.43
11/26/2023 22:14:17.620,0.234,-0.625,0.441
11/26/2023 22:14:17.630,0.211,-0.746,0.438
11/26/2023 22:14:17.640,0.184,-0.867,0.422
11/26/2023 22:14:17.650,0.16,-0.992,0.418
11/26/2023 22:14:17.660,0.148,-1.105,0.43
11/26/2023 22:14:17.670,0.16,-1.195,0.441
11/26/2023 22:14:17.680,0.18,-1.23,0.438
11/26/2023 22:14:17.690,0.207,-1.23,0.43
11/26/2023 22:14:17.700,0.242,-1.176,0.43
11/26/2023 22:14:17.710,0.289,-1.094,0.445
11/26/2023 22:14:17.720,0.344,-0.984,0.457
11/26/2023 22:14:17.730,0.379,-0.859,0.457
11/26/2023 22:14:17.740,0.41,-0.754,0.461
11/26/2023 22:14:17.750,0.434,-0.664,0.461
11/26/2023 22:14:17.760,0.441,-0.59,0.461
11/26/2023 22:14:17.770,0.449,-0.547,0.465
11/26/2023 22:14:17.780,0.441,-0.52,0.461
11/26/2023 22:14:17.790,0.418,-0.516,0.457
11/26/2023 22:14:17.800,0.387,-0.527,0.457
11/26/2023 22:14:17.810,0.363,-0.555,0.465
11/26/2023 22:14:17.820,0.34,-0.586,0.457
11/26/2023 22:14:17.830,0.305,-0.633,0.449
11/26/2023 22:14:17.840,0.281,-0.68,0.438
11/26/2023 22:14:17.850,0.262,-0.738,0.426
11/26/2023 22:14:17.860,0.246,-0.789,0.418
11/26/2023 22:14:17.870,0.234,-0.832,0.422
11/26/2023 22:14:17.880,0.23,-0.859,0.43
11/26/2023 22:14:17.890,0.223,-0.875,0.445
11/26/2023 22:14:17.900,0.219,-0.867,0.465
11/26/2023 22:14:17.910,0.219,-0.852,0.488
11/26/2023 22:14:17.920,0.223,-0.82,0.52
11/26/2023 22:14:17.930,0.23,-0.789,0.555
11/26/2023 22:14:17.940,0.254,-0.762,0.566
11/26/2023 22:14:17.950,0.273,-0.75,0.566
11/26/2023 22:14:17.960,0.293,-0.766,0.563
11/26/2023 22:14:17.970,0.32,-0.805,0.566
11/26/2023 22:14:17.980,0.348,-0.859,0.563
11/26/2023 22:14:17.990,0.363,-0.918,0.547
11/26/2023 22:14:18.000,0.359,-0.969,0.535
11/26/2023 22:14:18.010,0.367,-1.016,0.527
11/26/2023 22:14:18.020,0.352,-1.027,0.508
11/26/2023 22:14:18.030,0.332,-1.012,0.488
11/26/2023 22:14:18.040,0.324,-0.973,0.477
11/26/2023 22:14:18.050,0.328,-0.914,0.48
11/26/2023 22:14:18.060,0.336,-0.863,0.5
11/26/2023 22:14:18.070,0.352,-0.836,0.516
11/26/2023 22:14:18.080,0.355,-0.832,0.5
11/26/2023 22:14:18.090,0.367,-0.852,0.441
11/26/2023 22:14:18.100,0.391,-0.887,0.363
11/26/2023 22:14:18.110,0.41,-0.98,0.309
11/26/2023 22:14:18.120,0.465,-1.141,0.336
11/26/2023 22:14:18.130,0.512,-1.32,0.383
11/26/2023 22:14:18.140,0.457,-1.422,0.363
11/26/2023 22:14:18.150,0.328,-1.355,0.27
11/26/2023 22:14:18.160,0.246,-1.168,0.172
11/26/2023 22:14:18.170,0.262,-0.949,0.105
11/26/2023 22:14:18.180,0.309,-0.77,0.066
11/26/2023 22:14:18.190,0.355,-0.676,0.055
11/26/2023 22:14:18.200,0.391,-0.672,0.055
11/26/2023 22:14:18.210,0.395,-0.75,0.043
11/26/2023 22:14:18.220,0.379,-0.883,0.027
11/26/2023 22:14:18.230,0.371,-1.027,0.023
11/26/2023 22:14:18.240,0.367,-1.137,0.027
11/26/2023 22:14:18.250,0.355,-1.203,0.043
11/26/2023 22:14:18.260,0.309,-1.215,0.035
11/26/2023 22:14:18.270,0.246,-1.188,0.02
11/26/2023 22:14:18.280,0.184,-1.141,0.004
11/26/2023 22:14:18.290,0.137,-1.086,-0.02
11/26/2023 22:14:18.300,0.102,-1.043,-0.027
11/26/2023 22:14:18.310,0.043,-1.02,-0.023
11/26/2023 22:14:18.320,-0.016,-1,-0.02
11/26/2023 22:14:18.330,-0.078,-0.988,-0.008
11/26/2023 22:14:18.340,-0.125,-0.992,0.016
11/26/2023 22:14:18.350,-0.137,-0.996,0.059
11/26/2023 22:14:18.360,-0.148,-0.996,0.098
11/26/2023 22:14:18.370,-0.129,-0.996,0.137
11/26/2023 22:14:18.380,-0.102,-0.973,0.168
11/26/2023 22:14:18.390,-0.059,-0.934,0.195
11/26/2023 22:14:18.400,-0.023,-0.906,0.223
11/26/2023 22:14:18.410,0.016,-0.879,0.246
11/26/2023 22:14:18.420,0.043,-0.863,0.25
11/26/2023 22:14:18.430,0.074,-0.871,0.242
11/26/2023 22:14:18.440,0.086,-0.891,0.227
11/26/2023 22:14:18.450,0.102,-0.914,0.211
11/26/2023 22:14:18.460,0.125,-0.949,0.195
11/26/2023 22:14:18.470,0.156,-0.969,0.195
11/26/2023 22:14:18.480,0.18,-0.992,0.199
11/26/2023 22:14:18.490,0.199,-1,0.211
11/26/2023 22:14:18.500,0.211,-1,0.211
11/26/2023 22:14:18.510,0.238,-0.996,0.211
11/26/2023 22:14:18.520,0.254,-0.977,0.207
11/26/2023 22:14:18.530,0.258,-0.953,0.188
11/26/2023 22:14:18.540,0.25,-0.93,0.172
11/26/2023 22:14:18.550,0.25,-0.918,0.172
11/26/2023 22:14:18.560,0.238,-0.926,0.172
11/26/2023 22:14:18.570,0.227,-0.941,0.172
11/26/2023 22:14:18.580,0.211,-0.969,0.176
11/26/2023 22:14:18.590,0.199,-1,0.191
11/26/2023 22:14:18.600,0.184,-1.035,0.211
11/26/2023 22:14:18.610,0.152,-1.059,0.227
11/26/2023 22:14:18.620,0.102,-1.063,0.227
11/26/2023 22:14:18.630,0.047,-1.043,0.199
11/26/2023 22:14:18.640,-0.008,-1.012,0.184
11/26/2023 22:14:18.650,-0.059,-0.992,0.176
11/26/2023 22:14:18.660,-0.086,-0.977,0.176
11/26/2023 22:14:18.670,-0.102,-0.973,0.172
11/26/2023 22:14:18.680,-0.105,-0.965,0.168
11/26/2023 22:14:18.690,-0.07,-0.973,0.172
11/26/2023 22:14:18.700,-0.016,-0.992,0.199
11/26/2023 22:14:18.710,0.039,-1.016,0.234
11/26/2023 22:14:18.720,0.102,-1.039,0.277
11/26/2023 22:14:18.730,0.172,-1.047,0.305
11/26/2023 22:14:18.740,0.227,-1.047,0.32
11/26/2023 22:14:18.750,0.234,-1.035,0.32
11/26/2023 22:14:18.760,0.188,-1.043,0.297
11/26/2023 22:14:18.770,0.121,-1.051,0.266
11/26/2023 22:14:18.780,0.051,-1.078,0.258
11/26/2023 22:14:18.790,-0.035,-1.109,0.258
11/26/2023 22:14:18.800,-0.125,-1.137,0.246
11/26/2023 22:14:18.810,-0.215,-1.148,0.211
11/26/2023 22:14:18.820,-0.289,-1.152,0.164
11/26/2023 22:14:18.830,-0.332,-1.148,0.109
11/26/2023 22:14:18.840,-0.328,-1.152,0.063
11/26/2023 22:14:18.850,-0.258,-1.184,0.039
11/26/2023 22:14:18.860,-0.133,-1.23,0.031
11/26/2023 22:14:18.870,0.031,-1.254,0.023
11/26/2023 22:14:18.880,0.195,-1.262,-0.008
11/26/2023 22:14:18.890,0.332,-1.262,-0.051
11/26/2023 22:14:18.900,0.438,-1.238,-0.086
11/26/2023 22:14:18.910,0.543,-1.184,-0.098
11/26/2023 22:14:18.920,0.641,-1.102,-0.078
11/26/2023 22:14:18.930,0.715,-1.008,-0.035
11/26/2023 22:14:18.940,0.758,-0.898,0.051
11/26/2023 22:14:18.950,0.766,-0.797,0.168
11/26/2023 22:14:18.960,0.75,-0.719,0.273
11/26/2023 22:14:18.970,0.707,-0.676,0.324
11/26/2023 22:14:18.980,0.672,-0.672,0.336
11/26/2023 22:14:18.990,0.621,-0.715,0.301
11/26/2023 22:14:19.000,0.5,-0.809,0.242
11/26/2023 22:14:19.010,0.359,-0.938,0.203
11/26/2023 22:14:19.020,0.215,-1.074,0.172
11/26/2023 22:14:19.030,0.082,-1.176,0.133
11/26/2023 22:14:19.040,-0.043,-1.242,0.09
11/26/2023 22:14:19.050,-0.133,-1.262,0.051
11/26/2023 22:14:19.060,-0.168,-1.238,0.063
11/26/2023 22:14:19.070,-0.145,-1.176,0.09
11/26/2023 22:14:19.080,-0.105,-1.078,0.121
11/26/2023 22:14:19.090,-0.039,-0.957,0.152
11/26/2023 22:14:19.100,0.043,-0.844,0.176
11/26/2023 22:14:19.110,0.125,-0.758,0.191
11/26/2023 22:14:19.120,0.188,-0.707,0.188
11/26/2023 22:14:19.130,0.223,-0.672,0.191
11/26/2023 22:14:19.140,0.242,-0.664,0.207
11/26/2023 22:14:19.150,0.258,-0.668,0.238
11/26/2023 22:14:19.160,0.262,-0.684,0.25
11/26/2023 22:14:19.170,0.254,-0.699,0.238
11/26/2023 22:14:19.180,0.242,-0.727,0.223
11/26/2023 22:14:19.190,0.234,-0.77,0.219
11/26/2023 22:14:19.200,0.23,-0.816,0.234
11/26/2023 22:14:19.210,0.23,-0.867,0.258
11/26/2023 22:14:19.220,0.23,-0.914,0.289
11/26/2023 22:14:19.230,0.215,-0.957,0.305
11/26/2023 22:14:19.240,0.199,-0.988,0.313
11/26/2023 22:14:19.250,0.18,-0.996,0.305
11/26/2023 22:14:19.260,0.164,-0.98,0.301
11/26/2023 22:14:19.270,0.137,-0.938,0.301
11/26/2023 22:14:19.280,0.105,-0.887,0.316
11/26/2023 22:14:19.290,0.078,-0.836,0.344
11/26/2023 22:14:19.300,0.051,-0.801,0.367
11/26/2023 22:14:19.310,0.023,-0.777,0.383
11/26/2023 22:14:19.320,-0.008,-0.766,0.387
11/26/2023 22:14:19.330,-0.031,-0.762,0.379
11/26/2023 22:14:19.340,-0.043,-0.762,0.352
11/26/2023 22:14:19.350,-0.047,-0.762,0.313
11/26/2023 22:14:19.360,-0.031,-0.766,0.27
11/26/2023 22:14:19.370,-0.008,-0.781,0.215
11/26/2023 22:14:19.380,0.043,-0.809,0.164
11/26/2023 22:14:19.390,0.109,-0.84,0.156
11/26/2023 22:14:19.400,0.176,-0.891,0.234
11/26/2023 22:14:19.410,0.27,-0.973,0.402
11/26/2023 22:14:19.420,0.383,-1.086,0.578
11/26/2023 22:14:19.430,0.48,-1.176,0.691
11/26/2023 22:14:19.440,0.453,-1.234,0.699
11/26/2023 22:14:19.450,0.297,-1.266,0.633
11/26/2023 22:14:19.460,0.117,-1.266,0.535
11/26/2023 22:14:19.470,0.016,-1.238,0.383
11/26/2023 22:14:19.480,-0.043,-1.211,0.223
11/26/2023 22:14:19.490,-0.086,-1.234,0.16
11/26/2023 22:14:19.500,-0.105,-1.281,0.215
11/26/2023 22:14:19.510,-0.043,-1.352,0.27
11/26/2023 22:14:19.520,0.047,-1.414,0.25
11/26/2023 22:14:19.530,0.152,-1.438,0.246
11/26/2023 22:14:19.540,0.281,-1.387,0.285
11/26/2023 22:14:19.550,0.414,-1.262,0.309
11/26/2023 22:14:19.560,0.543,-1.117,0.305
11/26/2023 22:14:19.570,0.621,-1.004,0.277
11/26/2023 22:14:19.580,0.625,-0.934,0.254
11/26/2023 22:14:19.590,0.609,-0.871,0.203
11/26/2023 22:14:19.600,0.578,-0.805,0.133
11/26/2023 22:14:19.610,0.512,-0.734,0.043
11/26/2023 22:14:19.620,0.395,-0.684,-0.047
11/26/2023 22:14:19.630,0.25,-0.676,-0.102
11/26/2023 22:14:19.640,0.125,-0.711,-0.113
11/26/2023 22:14:19.650,0.066,-0.793,-0.078
11/26/2023 22:14:19.660,0.078,-0.898,-0.016
11/26/2023 22:14:19.670,0.109,-1.008,0.035
11/26/2023 22:14:19.680,0.148,-1.086,0.086
11/26/2023 22:14:19.690,0.211,-1.117,0.129
11/26/2023 22:14:19.700,0.289,-1.105,0.176
11/26/2023 22:14:19.710,0.363,-1.051,0.211
11/26/2023 22:14:19.720,0.418,-0.969,0.242
11/26/2023 22:14:19.730,0.441,-0.891,0.258
11/26/2023 22:14:19.740,0.426,-0.816,0.25
11/26/2023 22:14:19.750,0.395,-0.754,0.23
11/26/2023 22:14:19.760,0.336,-0.719,0.199
11/26/2023 22:14:19.770,0.258,-0.703,0.168
11/26/2023 22:14:19.780,0.16,-0.711,0.148
11/26/2023 22:14:19.790,0.066,-0.734,0.137
11/26/2023 22:14:19.800,-0.008,-0.758,0.125
11/26/2023 22:14:19.810,-0.055,-0.773,0.129
11/26/2023 22:14:19.820,-0.082,-0.777,0.129
11/26/2023 22:14:19.830,-0.098,-0.773,0.137
11/26/2023 22:14:19.840,-0.094,-0.777,0.145
11/26/2023 22:14:19.850,-0.082,-0.785,0.164
11/26/2023 22:14:19.860,-0.059,-0.793,0.188
11/26/2023 22:14:19.870,-0.035,-0.805,0.211
11/26/2023 22:14:19.880,-0.012,-0.816,0.23
11/26/2023 22:14:19.890,0.012,-0.844,0.242
11/26/2023 22:14:19.900,0.039,-0.879,0.258
11/26/2023 22:14:19.910,0.063,-0.934,0.258
11/26/2023 22:14:19.920,0.086,-1,0.254
11/26/2023 22:14:19.930,0.109,-1.066,0.254
11/26/2023 22:14:19.940,0.121,-1.121,0.25
11/26/2023 22:14:19.950,0.125,-1.156,0.25
11/26/2023 22:14:19.960,0.129,-1.172,0.273
11/26/2023 22:14:19.970,0.133,-1.16,0.301
11/26/2023 22:14:19.980,0.137,-1.125,0.336
11/26/2023 22:14:19.990,0.117,-1.09,0.352
11/26/2023 22:14:20.000,0.09,-1.039,0.344
11/26/2023 22:14:20.010,0.07,-0.984,0.34
11/26/2023 22:14:20.020,0.047,-0.941,0.324
11/26/2023 22:14:20.030,0,-0.922,0.309
11/26/2023 22:14:20.040,-0.055,-0.934,0.289
11/26/2023 22:14:20.050,-0.129,-0.93,0.227
11/26/2023 22:14:20.060,-0.23,-0.918,0.141
11/26/2023 22:14:20.070,-0.32,-0.922,0.102
11/26/2023 22:14:20.080,-0.367,-0.961,0.137
11/26/2023 22:14:20.090,-0.332,-1.051,0.219
11/26/2023 22:14:20.100,-0.23,-1.16,0.281
11/26/2023 22:14:20.110,-0.094,-1.262,0.305
11/26/2023 22:14:20.120,0.094,-1.355,0.34
11/26/2023 22:14:20.130,0.281,-1.422,0.328
11/26/2023 22:14:20.140,0.402,-1.465,0.238
11/26/2023 22:14:20.150,0.438,-1.5,0.113
11/26/2023 22:14:20.160,0.434,-1.52,-0.004
11/26/2023 22:14:20.170,0.438,-1.508,-0.113
11/26/2023 22:14:20.180,0.461,-1.473,-0.191
11/26/2023 22:14:20.190,0.5,-1.379,-0.211
11/26/2023 22:14:20.200,0.523,-1.223,-0.16
11/26/2023 22:14:20.210,0.527,-1.043,-0.023
11/26/2023 22:14:20.220,0.523,-0.898,0.145
11/26/2023 22:14:20.230,0.551,-0.785,0.273
11/26/2023 22:14:20.240,0.582,-0.707,0.363
11/26/2023 22:14:20.250,0.566,-0.648,0.387
11/26/2023 22:14:20.260,0.504,-0.629,0.367
11/26/2023 22:14:20.270,0.422,-0.656,0.332
11/26/2023 22:14:20.280,0.328,-0.723,0.273
11/26/2023 22:14:20.290,0.207,-0.809,0.219
11/26/2023 22:14:20.300,0.063,-0.891,0.156
11/26/2023 22:14:20.310,-0.07,-0.957,0.105
11/26/2023 22:14:20.320,-0.145,-1.004,0.086
11/26/2023 22:14:20.330,-0.176,-1.031,0.094
11/26/2023 22:14:20.340,-0.176,-1.063,0.113
11/26/2023 22:14:20.350,-0.156,-1.086,0.152
11/26/2023 22:14:20.360,-0.141,-1.109,0.195
11/26/2023 22:14:20.370,-0.098,-1.098,0.238
11/26/2023 22:14:20.380,-0.023,-1.043,0.285
11/26/2023 22:14:20.390,0.063,-0.957,0.305
11/26/2023 22:14:20.400,0.141,-0.875,0.301
11/26/2023 22:14:20.410,0.184,-0.82,0.285
11/26/2023 22:14:20.420,0.203,-0.793,0.277
11/26/2023 22:14:20.430,0.203,-0.793,0.285
11/26/2023 22:14:20.440,0.191,-0.793,0.293
11/26/2023 22:14:20.450,0.18,-0.781,0.305
11/26/2023 22:14:20.460,0.156,-0.766,0.305
11/26/2023 22:14:20.470,0.129,-0.746,0.309
11/26/2023 22:14:20.480,0.113,-0.742,0.32
11/26/2023 22:14:20.490,0.105,-0.746,0.336
11/26/2023 22:14:20.500,0.078,-0.77,0.352
11/26/2023 22:14:20.510,0.066,-0.785,0.367
11/26/2023 22:14:20.520,0.043,-0.805,0.363
11/26/2023 22:14:20.530,0.012,-0.824,0.367
11/26/2023 22:14:20.540,-0.023,-0.84,0.395
11/26/2023 22:14:20.550,-0.059,-0.855,0.426
11/26/2023 22:14:20.560,-0.094,-0.855,0.445
11/26/2023 22:14:20.570,-0.133,-0.832,0.441
11/26/2023 22:14:20.580,-0.152,-0.809,0.422
11/26/2023 22:14:20.590,-0.164,-0.785,0.383
11/26/2023 22:14:20.600,-0.156,-0.77,0.332
11/26/2023 22:14:20.610,-0.121,-0.762,0.297
11/26/2023 22:14:20.620,-0.063,-0.754,0.254
11/26/2023 22:14:20.630,0.004,-0.77,0.211
11/26/2023 22:14:20.640,0.074,-0.801,0.219
11/26/2023 22:14:20.650,0.148,-0.867,0.324
11/26/2023 22:14:20.660,0.258,-0.965,0.488
11/26/2023 22:14:20.670,0.402,-1.055,0.617
11/26/2023 22:14:20.680,0.516,-1.137,0.676
11/26/2023 22:14:20.690,0.508,-1.219,0.652
11/26/2023 22:14:20.700,0.414,-1.289,0.563
11/26/2023 22:14:20.710,0.293,-1.328,0.414
11/26/2023 22:14:20.720,0.207,-1.336,0.281
11/26/2023 22:14:20.730,0.191,-1.34,0.195
11/26/2023 22:14:20.740,0.203,-1.367,0.16
11/26/2023 22:14:20.750,0.199,-1.441,0.215
11/26/2023 22:14:20.760,0.168,-1.488,0.316
11/26/2023 22:14:20.770,0.18,-1.43,0.313
11/26/2023 22:14:20.780,0.211,-1.277,0.145
11/26/2023 22:14:20.790,0.277,-1.125,0.063
11/26/2023 22:14:20.800,0.34,-1.055,0.145
11/26/2023 22:14:20.810,0.309,-1.047,0.223
11/26/2023 22:14:20.820,0.215,-1.043,0.184
11/26/2023 22:14:20.830,0.137,-1.004,0.066
11/26/2023 22:14:20.840,0.094,-0.926,-0.066
11/26/2023 22:14:20.850,0.098,-0.848,-0.156
11/26/2023 22:14:20.860,0.133,-0.809,-0.176
11/26/2023 22:14:20.870,0.191,-0.824,-0.125
11/26/2023 22:14:20.880,0.262,-0.887,-0.02
11/26/2023 22:14:20.890,0.344,-0.953,0.082
11/26/2023 22:14:20.900,0.422,-1.008,0.152
11/26/2023 22:14:20.910,0.496,-1.051,0.195
11/26/2023 22:14:20.920,0.566,-1.09,0.223
11/26/2023 22:14:20.930,0.578,-1.109,0.25
11/26/2023 22:14:20.940,0.539,-1.098,0.262
11/26/2023 22:14:20.950,0.473,-1.063,0.246
11/26/2023 22:14:20.960,0.395,-0.988,0.219
11/26/2023 22:14:20.970,0.309,-0.91,0.176
11/26/2023 22:14:20.980,0.219,-0.828,0.156
11/26/2023 22:14:20.990,0.129,-0.781,0.148
11/26/2023 22:14:21.000,0.039,-0.754,0.145
11/26/2023 22:14:21.010,-0.016,-0.746,0.152
11/26/2023 22:14:21.020,-0.043,-0.742,0.16
11/26/2023 22:14:21.030,-0.043,-0.738,0.152
11/26/2023 22:14:21.040,-0.023,-0.723,0.145
11/26/2023 22:14:21.050,0.016,-0.699,0.141
11/26/2023 22:14:21.060,0.066,-0.691,0.145
11/26/2023 22:14:21.070,0.117,-0.695,0.16
11/26/2023 22:14:21.080,0.152,-0.723,0.168
11/26/2023 22:14:21.090,0.16,-0.762,0.172
11/26/2023 22:14:21.100,0.152,-0.816,0.176
11/26/2023 22:14:21.110,0.145,-0.879,0.191
11/26/2023 22:14:21.120,0.133,-0.93,0.215
11/26/2023 22:14:21.130,0.125,-0.992,0.25
11/26/2023 22:14:21.140,0.121,-1.047,0.305
11/26/2023 22:14:21.150,0.109,-1.109,0.352
11/26/2023 22:14:21.160,0.074,-1.152,0.359
11/26/2023 22:14:21.170,0.023,-1.168,0.332
11/26/2023 22:14:21.180,-0.039,-1.156,0.293
11/26/2023 22:14:21.190,-0.109,-1.121,0.258
11/26/2023 22:14:21.200,-0.172,-1.07,0.234
11/26/2023 22:14:21.210,-0.223,-0.992,0.195
11/26/2023 22:14:21.220,-0.277,-0.883,0.113
11/26/2023 22:14:21.230,-0.328,-0.781,0.027
11/26/2023 22:14:21.240,-0.355,-0.715,-0.02
11/26/2023 22:14:21.250,-0.344,-0.707,-0.016
11/26/2023 22:14:21.260,-0.301,-0.766,0.031
11/26/2023 22:14:21.270,-0.227,-0.859,0.102
11/26/2023 22:14:21.280,-0.152,-0.973,0.203
11/26/2023 22:14:21.290,-0.09,-1.078,0.285
11/26/2023 22:14:21.300,-0.02,-1.168,0.371
11/26/2023 22:14:21.310,0.09,-1.242,0.441
11/26/2023 22:14:21.320,0.203,-1.281,0.477
11/26/2023 22:14:21.330,0.293,-1.281,0.477
11/26/2023 22:14:21.340,0.336,-1.246,0.434
11/26/2023 22:14:21.350,0.367,-1.18,0.375
11/26/2023 22:14:21.360,0.398,-1.098,0.316
11/26/2023 22:14:21.370,0.422,-1.066,0.313
11/26/2023 22:14:21.380,0.426,-1.066,0.367
11/26/2023 22:14:21.390,0.375,-1.102,0.363
11/26/2023 22:14:21.400,0.262,-1.109,0.203
11/26/2023 22:14:21.410,0.109,-1.086,-0.012
11/26/2023 22:14:21.420,-0.027,-1.063,-0.195
11/26/2023 22:14:21.430,-0.129,-1.043,-0.332
11/26/2023 22:14:21.440,-0.133,-1.031,-0.359
11/26/2023 22:14:21.450,0.008,-1.02,-0.223
11/26/2023 22:14:21.460,0.277,-1.02,0.023
11/26/2023 22:14:21.470,0.57,-1.047,0.277
11/26/2023 22:14:21.480,0.738,-1.074,0.457
11/26/2023 22:14:21.490,0.785,-1.09,0.484
11/26/2023 22:14:21.500,0.816,-1.102,0.461
11/26/2023 22:14:21.510,0.859,-1.133,0.445
11/26/2023 22:14:21.520,0.77,-1.184,0.418
11/26/2023 22:14:21.530,0.477,-1.238,0.344
11/26/2023 22:14:21.540,0.148,-1.254,0.215
11/26/2023 22:14:21.550,-0.047,-1.195,0.148
11/26/2023 22:14:21.560,-0.148,-1.09,0.121
11/26/2023 22:14:21.570,-0.258,-0.992,0.094
11/26/2023 22:14:21.580,-0.359,-0.934,0.066
11/26/2023 22:14:21.590,-0.422,-0.91,0.059
11/26/2023 22:14:21.600,-0.438,-0.914,0.066
11/26/2023 22:14:21.610,-0.402,-0.93,0.086
11/26/2023 22:14:21.620,-0.336,-0.918,0.105
11/26/2023 22:14:21.630,-0.242,-0.871,0.125
11/26/2023 22:14:21.640,-0.145,-0.805,0.129
11/26/2023 22:14:21.650,-0.047,-0.75,0.137
11/26/2023 22:14:21.660,0.047,-0.715,0.152
11/26/2023 22:14:21.670,0.137,-0.711,0.168
11/26/2023 22:14:21.680,0.211,-0.719,0.176
11/26/2023 22:14:21.690,0.285,-0.746,0.199
11/26/2023 22:14:21.700,0.359,-0.785,0.242
11/26/2023 22:14:21.710,0.402,-0.84,0.281
11/26/2023 22:14:21.720,0.426,-0.891,0.301
11/26/2023 22:14:21.730,0.43,-0.934,0.32
11/26/2023 22:14:21.740,0.395,-0.977,0.328
11/26/2023 22:14:21.750,0.324,-1.016,0.316
11/26/2023 22:14:21.760,0.242,-1.043,0.313
11/26/2023 22:14:21.770,0.152,-1.055,0.316
11/26/2023 22:14:21.780,0.059,-1.039,0.309
11/26/2023 22:14:21.790,-0.035,-1.004,0.293
11/26/2023 22:14:21.800,-0.102,-0.938,0.277
11/26/2023 22:14:21.810,-0.152,-0.867,0.277
11/26/2023 22:14:21.820,-0.184,-0.793,0.277
11/26/2023 22:14:21.830,-0.191,-0.73,0.273
11/26/2023 22:14:21.840,-0.168,-0.676,0.25
11/26/2023 22:14:21.850,-0.125,-0.637,0.242
11/26/2023 22:14:21.860,-0.07,-0.648,0.23
11/26/2023 22:14:21.870,-0.012,-0.719,0.207
11/26/2023 22:14:21.880,0.074,-0.801,0.195
11/26/2023 22:14:21.890,0.188,-0.875,0.227
11/26/2023 22:14:21.900,0.285,-0.965,0.316
11/26/2023 22:14:21.910,0.367,-1.074,0.434
11/26/2023 22:14:21.920,0.434,-1.176,0.582
11/26/2023 22:14:21.930,0.445,-1.242,0.691
11/26/2023 22:14:21.940,0.363,-1.254,0.691
11/26/2023 22:14:21.950,0.199,-1.203,0.59
11/26/2023 22:14:21.960,0.012,-1.137,0.395
11/26/2023 22:14:21.970,-0.148,-1.09,0.195
11/26/2023 22:14:21.980,-0.258,-1.117,0.152
11/26/2023 22:14:21.990,-0.285,-1.211,0.227
11/26/2023 22:14:22.000,-0.242,-1.328,0.238
11/26/2023 22:14:22.010,-0.117,-1.449,0.203
11/26/2023 22:14:22.020,0.059,-1.539,0.203
11/26/2023 22:14:22.030,0.215,-1.594,0.242
11/26/2023 22:14:22.040,0.332,-1.602,0.297
11/26/2023 22:14:22.050,0.41,-1.555,0.344
11/26/2023 22:14:22.060,0.418,-1.426,0.352
11/26/2023 22:14:22.070,0.387,-1.223,0.305
11/26/2023 22:14:22.080,0.352,-0.949,0.203
11/26/2023 22:14:22.090,0.32,-0.695,0.105
11/26/2023 22:14:22.100,0.285,-0.5,0.043
11/26/2023 22:14:22.110,0.223,-0.387,0
11/26/2023 22:14:22.120,0.117,-0.371,-0.043
11/26/2023 22:14:22.130,0.008,-0.43,-0.098
11/26/2023 22:14:22.140,-0.059,-0.543,-0.148
11/26/2023 22:14:22.150,-0.055,-0.688,-0.168
11/26/2023 22:14:22.160,0.012,-0.852,-0.141
11/26/2023 22:14:22.170,0.098,-0.996,-0.059
11/26/2023 22:14:22.180,0.18,-1.121,0.039
11/26/2023 22:14:22.190,0.258,-1.207,0.121
11/26/2023 22:14:22.200,0.355,-1.219,0.191
11/26/2023 22:14:22.210,0.457,-1.188,0.242
11/26/2023 22:14:22.220,0.527,-1.129,0.27
11/26/2023 22:14:22.230,0.551,-1.055,0.297
11/26/2023 22:14:22.240,0.516,-0.98,0.305
11/26/2023 22:14:22.250,0.434,-0.914,0.281
11/26/2023 22:14:22.260,0.348,-0.867,0.258
11/26/2023 22:14:22.270,0.258,-0.848,0.234
11/26/2023 22:14:22.280,0.164,-0.844,0.219
11/26/2023 22:14:22.290,0.066,-0.855,0.195
11/26/2023 22:14:22.300,-0.023,-0.863,0.168
11/26/2023 22:14:22.310,-0.086,-0.855,0.141
11/26/2023 22:14:22.320,-0.121,-0.855,0.133
11/26/2023 22:14:22.330,-0.129,-0.84,0.137
11/26/2023 22:14:22.340,-0.121,-0.82,0.156
11/26/2023 22:14:22.350,-0.098,-0.813,0.168
11/26/2023 22:14:22.360,-0.07,-0.793,0.184
11/26/2023 22:14:22.370,-0.051,-0.789,0.191
11/26/2023 22:14:22.380,-0.043,-0.785,0.184
11/26/2023 22:14:22.390,-0.043,-0.789,0.188
11/26/2023 22:14:22.400,-0.035,-0.82,0.203
11/26/2023 22:14:22.410,-0.023,-0.867,0.23
11/26/2023 22:14:22.420,0,-0.914,0.254
11/26/2023 22:14:22.430,0.012,-0.957,0.262
11/26/2023 22:14:22.440,0.016,-0.988,0.258
11/26/2023 22:14:22.450,0.008,-1.008,0.254
11/26/2023 22:14:22.460,0,-1.02,0.246
11/26/2023 22:14:22.470,-0.008,-1.016,0.234
11/26/2023 22:14:22.480,-0.008,-1.008,0.23
11/26/2023 22:14:22.490,-0.008,-0.996,0.219
11/26/2023 22:14:22.500,-0.012,-0.984,0.207
11/26/2023 22:14:22.510,0.027,-0.98,0.242
11/26/2023 22:14:22.520,0.063,-0.984,0.297
11/26/2023 22:14:22.530,0.105,-1.004,0.359
11/26/2023 22:14:22.540,0.152,-1.027,0.383
11/26/2023 22:14:22.550,0.168,-1.004,0.355
11/26/2023 22:14:22.560,0.086,-0.934,0.285
11/26/2023 22:14:22.570,-0.094,-0.906,0.227
11/26/2023 22:14:22.580,-0.23,-0.953,0.262
11/26/2023 22:14:22.590,-0.254,-1.039,0.363
11/26/2023 22:14:22.600,-0.211,-1.137,0.402
11/26/2023 22:14:22.610,-0.188,-1.238,0.324
11/26/2023 22:14:22.620,-0.16,-1.363,0.25
11/26/2023 22:14:22.630,-0.066,-1.516,0.227
11/26/2023 22:14:22.640,0.078,-1.641,0.246
11/26/2023 22:14:22.650,0.223,-1.688,0.219
11/26/2023 22:14:22.660,0.348,-1.621,0.156
11/26/2023 22:14:22.670,0.402,-1.5,0.055
11/26/2023 22:14:22.680,0.406,-1.359,-0.074
11/26/2023 22:14:22.690,0.391,-1.203,-0.184
11/26/2023 22:14:22.700,0.387,-1.031,-0.203
11/26/2023 22:14:22.710,0.395,-0.863,-0.137
11/26/2023 22:14:22.720,0.398,-0.73,-0.012
11/26/2023 22:14:22.730,0.41,-0.656,0.133
11/26/2023 22:14:22.740,0.434,-0.625,0.266
11/26/2023 22:14:22.750,0.449,-0.621,0.375
11/26/2023 22:14:22.760,0.426,-0.645,0.418
11/26/2023 22:14:22.770,0.355,-0.684,0.391
11/26/2023 22:14:22.780,0.266,-0.758,0.324
11/26/2023 22:14:22.790,0.16,-0.867,0.254
11/26/2023 22:14:22.800,0.035,-0.98,0.18
11/26/2023 22:14:22.810,-0.117,-1.098,0.102
11/26/2023 22:14:22.820,-0.234,-1.191,0.039
11/26/2023 22:14:22.830,-0.27,-1.246,0.004
11/26/2023 22:14:22.840,-0.25,-1.281,-0.004
11/26/2023 22:14:22.850,-0.199,-1.281,0.027
11/26/2023 22:14:22.860,-0.145,-1.258,0.078
11/26/2023 22:14:22.870,-0.082,-1.188,0.133
11/26/2023 22:14:22.880,0.008,-1.078,0.176
11/26/2023 22:14:22.890,0.117,-0.961,0.215
11/26/2023 22:14:22.900,0.207,-0.863,0.234
11/26/2023 22:14:22.910,0.285,-0.789,0.25
11/26/2023 22:14:22.920,0.332,-0.762,0.258
11/26/2023 22:14:22.930,0.352,-0.77,0.266
11/26/2023 22:14:22.940,0.355,-0.789,0.27
11/26/2023 22:14:22.950,0.34,-0.809,0.285
11/26/2023 22:14:22.960,0.313,-0.813,0.297
11/26/2023 22:14:22.970,0.285,-0.789,0.301
11/26/2023 22:14:22.980,0.246,-0.762,0.289
11/26/2023 22:14:22.990,0.195,-0.742,0.281
11/26/2023 22:14:23.000,0.129,-0.73,0.281
11/26/2023 22:14:23.010,0.078,-0.73,0.277
11/26/2023 22:14:23.020,0.027,-0.734,0.277
11/26/2023 22:14:23.030,-0.027,-0.75,0.309
11/26/2023 22:14:23.040,-0.07,-0.77,0.355
11/26/2023 22:14:23.050,-0.098,-0.789,0.387
11/26/2023 22:14:23.060,-0.121,-0.797,0.414
11/26/2023 22:14:23.070,-0.141,-0.797,0.449
11/26/2023 22:14:23.080,-0.133,-0.793,0.453
11/26/2023 22:14:23.090,-0.117,-0.777,0.406
11/26/2023 22:14:23.100,-0.09,-0.762,0.344
11/26/2023 22:14:23.110,-0.035,-0.754,0.305
11/26/2023 22:14:23.120,0.043,-0.797,0.234
11/26/2023 22:14:23.130,0.168,-0.852,0.18
11/26/2023 22:14:23.140,0.297,-0.879,0.148
11/26/2023 22:14:23.150,0.375,-0.941,0.215
11/26/2023 22:14:23.160,0.426,-1.086,0.41
11/26/2023 22:14:23.170,0.48,-1.219,0.637
11/26/2023 22:14:23.180,0.508,-1.277,0.766
11/26/2023 22:14:23.190,0.438,-1.262,0.734
11/26/2023 22:14:23.200,0.262,-1.227,0.594
11/26/2023 22:14:23.210,0.063,-1.195,0.371
11/26/2023 22:14:23.220,-0.07,-1.215,0.164
11/26/2023 22:14:23.230,-0.09,-1.281,0.125
11/26/2023 22:14:23.240,-0.047,-1.387,0.152
11/26/2023 22:14:23.250,0.023,-1.5,0.109
11/26/2023 22:14:23.260,0.145,-1.617,0.098
11/26/2023 22:14:23.270,0.293,-1.711,0.172
11/26/2023 22:14:23.280,0.414,-1.73,0.254
11/26/2023 22:14:23.290,0.469,-1.652,0.277
11/26/2023 22:14:23.300,0.473,-1.48,0.27
11/26/2023 22:14:23.310,0.438,-1.23,0.227
11/26/2023 22:14:23.320,0.367,-0.941,0.129
11/26/2023 22:14:23.330,0.285,-0.648,-0.008
11/26/2023 22:14:23.340,0.207,-0.406,-0.125
11/26/2023 22:14:23.350,0.125,-0.273,-0.18
11/26/2023 22:14:23.360,0.063,-0.277,-0.168
11/26/2023 22:14:23.370,0.023,-0.418,-0.09
11/26/2023 22:14:23.380,0.039,-0.66,0
11/26/2023 22:14:23.390,0.074,-0.906,0.066
11/26/2023 22:14:23.400,0.109,-1.098,0.09
11/26/2023 22:14:23.410,0.168,-1.234,0.105
11/26/2023 22:14:23.420,0.258,-1.301,0.152
11/26/2023 22:14:23.430,0.367,-1.297,0.215
11/26/2023 22:14:23.440,0.465,-1.219,0.266
11/26/2023 22:14:23.450,0.523,-1.082,0.301
11/26/2023 22:14:23.460,0.539,-0.914,0.277
11/26/2023 22:14:23.470,0.535,-0.758,0.254
11/26/2023 22:14:23.480,0.496,-0.641,0.227
11/26/2023 22:14:23.490,0.406,-0.586,0.191
11/26/2023 22:14:23.500,0.262,-0.582,0.156
11/26/2023 22:14:23.510,0.125,-0.633,0.137
11/26/2023 22:14:23.520,0,-0.684,0.109
11/26/2023 22:14:23.530,-0.094,-0.73,0.09
11/26/2023 22:14:23.540,-0.148,-0.762,0.078
11/26/2023 22:14:23.550,-0.168,-0.789,0.086
11/26/2023 22:14:23.560,-0.164,-0.813,0.102
11/26/2023 22:14:23.570,-0.152,-0.84,0.125
11/26/2023 22:14:23.580,-0.129,-0.848,0.152
11/26/2023 22:14:23.590,-0.098,-0.844,0.172
11/26/2023 22:14:23.600,-0.07,-0.855,0.203
11/26/2023 22:14:23.610,-0.035,-0.867,0.23
11/26/2023 22:14:23.620,-0.016,-0.883,0.25
11/26/2023 22:14:23.630,-0.016,-0.887,0.25
11/26/2023 22:14:23.640,-0.023,-0.898,0.246
11/26/2023 22:14:23.650,-0.035,-0.934,0.25
11/26/2023 22:14:23.660,-0.035,-0.973,0.25
11/26/2023 22:14:23.670,-0.016,-1.016,0.258
11/26/2023 22:14:23.680,0.027,-1.059,0.266
11/26/2023 22:14:23.690,0.086,-1.074,0.297
11/26/2023 22:14:23.700,0.148,-1.078,0.336
11/26/2023 22:14:23.710,0.223,-1.066,0.363
11/26/2023 22:14:23.720,0.27,-1.043,0.371
11/26/2023 22:14:23.730,0.301,-1.02,0.367
11/26/2023 22:14:23.740,0.313,-1.016,0.367
11/26/2023 22:14:23.750,0.258,-1.004,0.348
11/26/2023 22:14:23.760,0.113,-0.992,0.289
11/26/2023 22:14:23.770,-0.063,-1.012,0.262
11/26/2023 22:14:23.780,-0.195,-1.074,0.324
11/26/2023 22:14:23.790,-0.262,-1.188,0.391
11/26/2023 22:14:23.800,-0.273,-1.324,0.371
11/26/2023 22:14:23.810,-0.238,-1.43,0.277
11/26/2023 22:14:23.820,-0.156,-1.504,0.191
11/26/2023 22:14:23.830,-0.02,-1.563,0.172
11/26/2023 22:14:23.840,0.18,-1.582,0.18
11/26/2023 22:14:23.850,0.383,-1.508,0.117
11/26/2023 22:14:23.860,0.547,-1.355,-0.035
11/26/2023 22:14:23.870,0.621,-1.18,-0.23
11/26/2023 22:14:23.880,0.633,-1.051,-0.258
11/26/2023 22:14:23.890,0.648,-0.973,0.008
11/26/2023 22:14:23.900,0.738,-0.875,0.328
11/26/2023 22:14:23.910,0.801,-0.746,0.473
11/26/2023 22:14:23.920,0.699,-0.633,0.426
11/26/2023 22:14:23.930,0.488,-0.586,0.309
11/26/2023 22:14:23.940,0.336,-0.637,0.273
11/26/2023 22:14:23.950,0.27,-0.754,0.309
11/26/2023 22:14:23.960,0.211,-0.906,0.313
11/26/2023 22:14:23.970,0.09,-1.051,0.258
11/26/2023 22:14:23.980,-0.078,-1.168,0.199
11/26/2023 22:14:23.990,-0.234,-1.246,0.145
11/26/2023 22:14:24.000,-0.34,-1.273,0.105
11/26/2023 22:14:24.010,-0.367,-1.23,0.094
11/26/2023 22:14:24.020,-0.34,-1.125,0.094
11/26/2023 22:14:24.030,-0.289,-1,0.113
11/26/2023 22:14:24.040,-0.242,-0.891,0.137
11/26/2023 22:14:24.050,-0.172,-0.809,0.18
11/26/2023 22:14:24.060,-0.078,-0.75,0.227
11/26/2023 22:14:24.070,0.023,-0.711,0.273
11/26/2023 22:14:24.080,0.113,-0.684,0.305
11/26/2023 22:14:24.090,0.176,-0.676,0.324
11/26/2023 22:14:24.100,0.23,-0.684,0.336
11/26/2023 22:14:24.110,0.266,-0.703,0.352
11/26/2023 22:14:24.120,0.297,-0.738,0.367
11/26/2023 22:14:24.130,0.316,-0.773,0.363
11/26/2023 22:14:24.140,0.313,-0.789,0.352
11/26/2023 22:14:24.150,0.285,-0.797,0.352
11/26/2023 22:14:24.160,0.254,-0.789,0.355
11/26/2023 22:14:24.170,0.219,-0.77,0.367
11/26/2023 22:14:24.180,0.168,-0.746,0.375
11/26/2023 22:14:24.190,0.102,-0.73,0.387
11/26/2023 22:14:24.200,0.035,-0.73,0.41
11/26/2023 22:14:24.210,-0.016,-0.742,0.445
11/26/2023 22:14:24.220,-0.082,-0.762,0.461
11/26/2023 22:14:24.230,-0.148,-0.789,0.465
11/26/2023 22:14:24.240,-0.23,-0.82,0.461
11/26/2023 22:14:24.250,-0.277,-0.844,0.461
11/26/2023 22:14:24.260,-0.281,-0.832,0.375
11/26/2023 22:14:24.270,-0.242,-0.801,0.258
11/26/2023 22:14:24.280,-0.18,-0.785,0.129
11/26/2023 22:14:24.290,-0.082,-0.793,0.023
11/26/2023 22:14:24.300,0.078,-0.836,0.043
11/26/2023 22:14:24.310,0.277,-0.91,0.223
11/26/2023 22:14:24.320,0.484,-1.016,0.52
11/26/2023 22:14:24.330,0.68,-1.113,0.773
11/26/2023 22:14:24.340,0.781,-1.172,0.863
11/26/2023 22:14:24.350,0.691,-1.234,0.813
11/26/2023 22:14:24.360,0.473,-1.293,0.648
11/26/2023 22:14:24.370,0.309,-1.277,0.383
11/26/2023 22:14:24.380,0.254,-1.219,0.148
11/26/2023 22:14:24.390,0.246,-1.191,-0.008
11/26/2023 22:14:24.400,0.246,-1.266,-0.145
11/26/2023 22:14:24.410,0.293,-1.469,-0.109
11/26/2023 22:14:24.420,0.398,-1.703,0.086
11/26/2023 22:14:24.430,0.445,-1.879,0.234
11/26/2023 22:14:24.440,0.426,-1.895,0.254
11/26/2023 22:14:24.450,0.391,-1.734,0.211
11/26/2023 22:14:24.460,0.363,-1.438,0.156
11/26/2023 22:14:24.470,0.316,-1.105,0.07
11/26/2023 22:14:24.480,0.258,-0.813,-0.008
11/26/2023 22:14:24.490,0.191,-0.621,-0.055
11/26/2023 22:14:24.500,0.133,-0.531,-0.055
11/26/2023 22:14:24.510,0.129,-0.555,-0.004
11/26/2023 22:14:24.520,0.129,-0.672,0.059
11/26/2023 22:14:24.530,0.125,-0.82,0.074
11/26/2023 22:14:24.540,0.121,-0.957,0.055
11/26/2023 22:14:24.550,0.129,-1.078,0.035
11/26/2023 22:14:24.560,0.164,-1.168,0.059
11/26/2023 22:14:24.570,0.234,-1.199,0.125
11/26/2023 22:14:24.580,0.305,-1.156,0.184
11/26/2023 22:14:24.590,0.359,-1.047,0.211
11/26/2023 22:14:24.600,0.41,-0.898,0.219
11/26/2023 22:14:24.610,0.453,-0.758,0.219
11/26/2023 22:14:24.620,0.473,-0.648,0.23
11/26/2023 22:14:24.630,0.461,-0.574,0.23
11/26/2023 22:14:24.640,0.402,-0.523,0.207
11/26/2023 22:14:24.650,0.32,-0.508,0.176
11/26/2023 22:14:24.660,0.211,-0.527,0.145
11/26/2023 22:14:24.670,0.102,-0.578,0.121
11/26/2023 22:14:24.680,0.023,-0.641,0.113
11/26/2023 22:14:24.690,-0.016,-0.707,0.125
11/26/2023 22:14:24.700,-0.031,-0.766,0.137
11/26/2023 22:14:24.710,-0.039,-0.816,0.156
11/26/2023 22:14:24.720,-0.043,-0.852,0.164
11/26/2023 22:14:24.730,-0.063,-0.879,0.172
11/26/2023 22:14:24.740,-0.07,-0.895,0.195
11/26/2023 22:14:24.750,-0.09,-0.91,0.215
11/26/2023 22:14:24.760,-0.098,-0.906,0.223
11/26/2023 22:14:24.770,-0.113,-0.91,0.23
11/26/2023 22:14:24.780,-0.113,-0.922,0.25
11/26/2023 22:14:24.790,-0.105,-0.938,0.273
11/26/2023 22:14:24.800,-0.082,-0.949,0.289
11/26/2023 22:14:24.810,-0.059,-0.945,0.305
11/26/2023 22:14:24.820,-0.031,-0.941,0.324
11/26/2023 22:14:24.830,0.004,-0.934,0.359
11/26/2023 22:14:24.840,0.051,-0.926,0.383
11/26/2023 22:14:24.850,0.098,-0.922,0.391
11/26/2023 22:14:24.860,0.129,-0.914,0.391
11/26/2023 22:14:24.870,0.148,-0.906,0.371
11/26/2023 22:14:24.880,0.172,-0.934,0.375
11/26/2023 22:14:24.890,0.172,-0.984,0.383
11/26/2023 22:14:24.900,0.105,-1.004,0.363
11/26/2023 22:14:24.910,-0.051,-1.027,0.336
11/26/2023 22:14:24.920,-0.191,-1.09,0.379
11/26/2023 22:14:24.930,-0.254,-1.18,0.48
11/26/2023 22:14:24.940,-0.227,-1.266,0.523
11/26/2023 22:14:24.950,-0.156,-1.348,0.457
11/26/2023 22:14:24.960,-0.02,-1.406,0.348
11/26/2023 22:14:24.970,0.152,-1.438,0.258
11/26/2023 22:14:24.980,0.25,-1.461,0.18
11/26/2023 22:14:24.990,0.297,-1.473,0.094
11/26/2023 22:14:25.000,0.363,-1.418,0
11/26/2023 22:14:25.010,0.461,-1.281,-0.113
11/26/2023 22:14:25.020,0.516,-1.121,-0.25
11/26/2023 22:14:25.030,0.516,-1.027,-0.262
11/26/2023 22:14:25.040,0.535,-0.973,-0.098
11/26/2023 22:14:25.050,0.578,-0.914,0.148
11/26/2023 22:14:25.060,0.621,-0.836,0.328
11/26/2023 22:14:25.070,0.617,-0.758,0.41
11/26/2023 22:14:25.080,0.539,-0.734,0.41
11/26/2023 22:14:25.090,0.422,-0.793,0.383
11/26/2023 22:14:25.100,0.305,-0.93,0.324
11/26/2023 22:14:25.110,0.168,-1.094,0.242
11/26/2023 22:14:25.120,-0.008,-1.27,0.156
11/26/2023 22:14:25.130,-0.18,-1.418,0.086
11/26/2023 22:14:25.140,-0.293,-1.5,0.055
11/26/2023 22:14:25.150,-0.363,-1.48,0.035
11/26/2023 22:14:25.160,-0.379,-1.379,0.012
11/26/2023 22:14:25.170,-0.336,-1.207,0.02
11/26/2023 22:14:25.180,-0.27,-1.008,0.066
11/26/2023 22:14:25.190,-0.203,-0.832,0.113
11/26/2023 22:14:25.200,-0.125,-0.684,0.168
11/26/2023 22:14:25.210,-0.023,-0.594,0.223
11/26/2023 22:14:25.220,0.074,-0.539,0.266
11/26/2023 22:14:25.230,0.133,-0.52,0.285
11/26/2023 22:14:25.240,0.156,-0.539,0.281
11/26/2023 22:14:25.250,0.176,-0.574,0.289
11/26/2023 22:14:25.260,0.211,-0.625,0.301
11/26/2023 22:14:25.270,0.234,-0.684,0.309
11/26/2023 22:14:25.280,0.242,-0.734,0.316
11/26/2023 22:14:25.290,0.25,-0.777,0.328
11/26/2023 22:14:25.300,0.254,-0.805,0.332
11/26/2023 22:14:25.310,0.25,-0.82,0.328
11/26/2023 22:14:25.320,0.234,-0.828,0.324
11/26/2023 22:14:25.330,0.199,-0.844,0.34
11/26/2023 22:14:25.340,0.148,-0.855,0.348
11/26/2023 22:14:25.350,0.086,-0.875,0.355
11/26/2023 22:14:25.360,0.008,-0.891,0.367
11/26/2023 22:14:25.370,-0.07,-0.91,0.379
11/26/2023 22:14:25.380,-0.133,-0.906,0.383
11/26/2023 22:14:25.390,-0.184,-0.898,0.387
11/26/2023 22:14:25.400,-0.219,-0.863,0.398
11/26/2023 22:14:25.410,-0.242,-0.828,0.363
11/26/2023 22:14:25.420,-0.246,-0.789,0.293
11/26/2023 22:14:25.430,-0.219,-0.75,0.227
11/26/2023 22:14:25.440,-0.168,-0.734,0.113
11/26/2023 22:14:25.450,-0.07,-0.742,0.059
11/26/2023 22:14:25.460,0.09,-0.805,0.168
11/26/2023 22:14:25.470,0.289,-0.906,0.371
11/26/2023 22:14:25.480,0.5,-1.004,0.566
11/26/2023 22:14:25.490,0.676,-1.094,0.691
11/26/2023 22:14:25.500,0.734,-1.172,0.734
11/26/2023 22:14:25.510,0.625,-1.266,0.668
11/26/2023 22:14:25.520,0.41,-1.313,0.449
11/26/2023 22:14:25.530,0.219,-1.316,0.195
11/26/2023 22:14:25.540,0.121,-1.313,0.055
11/26/2023 22:14:25.550,0.121,-1.309,-0.023
11/26/2023 22:14:25.560,0.129,-1.391,-0.121
11/26/2023 22:14:25.570,0.137,-1.578,-0.113
11/26/2023 22:14:25.580,0.219,-1.785,0.051
11/26/2023 22:14:25.590,0.348,-1.949,0.211
11/26/2023 22:14:25.600,0.434,-1.973,0.293
11/26/2023 22:14:25.610,0.418,-1.82,0.273
11/26/2023 22:14:25.620,0.32,-1.5,0.191
11/26/2023 22:14:25.630,0.211,-1.094,0.066
11/26/2023 22:14:25.640,0.125,-0.723,-0.07
11/26/2023 22:14:25.650,0.039,-0.453,-0.172
11/26/2023 22:14:25.660,-0.027,-0.301,-0.223
11/26/2023 22:14:25.670,-0.051,-0.293,-0.203
11/26/2023 22:14:25.680,-0.031,-0.418,-0.133
11/26/2023 22:14:25.690,0.023,-0.645,-0.066
11/26/2023 22:14:25.700,0.098,-0.875,-0.02
11/26/2023 22:14:25.710,0.18,-1.07,0.027
11/26/2023 22:14:25.720,0.266,-1.199,0.059
11/26/2023 22:14:25.730,0.363,-1.246,0.086
11/26/2023 22:14:25.740,0.438,-1.238,0.117
11/26/2023 22:14:25.750,0.488,-1.168,0.156
11/26/2023 22:14:25.760,0.52,-1.059,0.195
11/26/2023 22:14:25.770,0.543,-0.918,0.219
11/26/2023 22:14:25.780,0.555,-0.773,0.234
11/26/2023 22:14:25.790,0.539,-0.66,0.238
11/26/2023 22:14:25.800,0.469,-0.586,0.223
11/26/2023 22:14:25.810,0.344,-0.563,0.199
11/26/2023 22:14:25.820,0.195,-0.582,0.168
11/26/2023 22:14:25.830,0.063,-0.629,0.148
11/26/2023 22:14:25.840,-0.031,-0.68,0.129
11/26/2023 22:14:25.850,-0.098,-0.734,0.117
11/26/2023 22:14:25.860,-0.141,-0.777,0.105
11/26/2023 22:14:25.870,-0.172,-0.813,0.105
11/26/2023 22:14:25.880,-0.188,-0.844,0.109
11/26/2023 22:14:25.890,-0.18,-0.867,0.125
11/26/2023 22:14:25.900,-0.172,-0.883,0.141
11/26/2023 22:14:25.910,-0.152,-0.902,0.152
11/26/2023 22:14:25.920,-0.137,-0.922,0.168
11/26/2023 22:14:25.930,-0.113,-0.938,0.172
11/26/2023 22:14:25.940,-0.078,-0.965,0.188
11/26/2023 22:14:25.950,-0.035,-0.992,0.219
11/26/2023 22:14:25.960,0.008,-1.02,0.254
11/26/2023 22:14:25.970,0.059,-1.031,0.281
11/26/2023 22:14:25.980,0.105,-1.02,0.297
11/26/2023 22:14:25.990,0.137,-1,0.305
11/26/2023 22:14:26.000,0.137,-0.973,0.313
11/26/2023 22:14:26.010,0.148,-0.961,0.328
11/26/2023 22:14:26.020,0.145,-0.969,0.332
11/26/2023 22:14:26.030,0.156,-0.996,0.332
11/26/2023 22:14:26.040,0.168,-1.027,0.332
11/26/2023 22:14:26.050,0.172,-1.047,0.313
11/26/2023 22:14:26.060,0.129,-1.055,0.293
11/26/2023 22:14:26.070,0.027,-1.051,0.285
11/26/2023 22:14:26.080,-0.105,-1.047,0.273
11/26/2023 22:14:26.090,-0.203,-1.047,0.289
11/26/2023 22:14:26.100,-0.234,-1.059,0.324
11/26/2023 22:14:26.110,-0.227,-1.09,0.305
11/26/2023 22:14:26.120,-0.172,-1.168,0.293
11/26/2023 22:14:26.130,-0.09,-1.277,0.332
11/26/2023 22:14:26.140,0.004,-1.387,0.352
11/26/2023 22:14:26.150,0.098,-1.457,0.297
11/26/2023 22:14:26.160,0.195,-1.488,0.219
11/26/2023 22:14:26.170,0.277,-1.484,0.141
11/26/2023 22:14:26.180,0.285,-1.418,0.016
11/26/2023 22:14:26.190,0.262,-1.316,-0.129
11/26/2023 22:14:26.200,0.273,-1.203,-0.191
11/26/2023 22:14:26.210,0.324,-1.082,-0.141
11/26/2023 22:14:26.220,0.367,-0.938,-0.027
11/26/2023 22:14:26.230,0.402,-0.789,0.102
11/26/2023 22:14:26.240,0.449,-0.668,0.234
11/26/2023 22:14:26.250,0.512,-0.582,0.344
11/26/2023 22:14:26.260,0.547,-0.527,0.422
11/26/2023 22:14:26.270,0.516,-0.52,0.449
11/26/2023 22:14:26.280,0.422,-0.57,0.434
11/26/2023 22:14:26.290,0.309,-0.668,0.387
11/26/2023 22:14:26.300,0.18,-0.781,0.305
11/26/2023 22:14:26.310,0.035,-0.898,0.199
11/26/2023 22:14:26.320,-0.113,-1.008,0.098
11/26/2023 22:14:26.330,-0.234,-1.102,0.027
11/26/2023 22:14:26.340,-0.301,-1.191,-0.004
11/26/2023 22:14:26.350,-0.313,-1.273,0.008
11/26/2023 22:14:26.360,-0.273,-1.352,0.059
11/26/2023 22:14:26.370,-0.188,-1.391,0.133
11/26/2023 22:14:26.380,-0.07,-1.367,0.207
11/26/2023 22:14:26.390,0.035,-1.266,0.234
11/26/2023 22:14:26.400,0.145,-1.121,0.25
11/26/2023 22:14:26.410,0.254,-0.98,0.277
11/26/2023 22:14:26.420,0.32,-0.867,0.297
11/26/2023 22:14:26.430,0.332,-0.813,0.293
11/26/2023 22:14:26.440,0.316,-0.789,0.285
11/26/2023 22:14:26.450,0.281,-0.789,0.277
11/26/2023 22:14:26.460,0.242,-0.793,0.273
11/26/2023 22:14:26.470,0.195,-0.773,0.266
11/26/2023 22:14:26.480,0.145,-0.75,0.242
11/26/2023 22:14:26.490,0.094,-0.734,0.23
11/26/2023 22:14:26.500,0.047,-0.719,0.223
11/26/2023 22:14:26.510,0.02,-0.719,0.234
11/26/2023 22:14:26.520,-0.008,-0.727,0.25
11/26/2023 22:14:26.530,-0.027,-0.75,0.273
11/26/2023 22:14:26.540,-0.047,-0.773,0.313
11/26/2023 22:14:26.550,-0.059,-0.801,0.344
11/26/2023 22:14:26.560,-0.07,-0.824,0.371
11/26/2023 22:14:26.570,-0.078,-0.836,0.379
11/26/2023 22:14:26.580,-0.074,-0.836,0.383
11/26/2023 22:14:26.590,-0.07,-0.828,0.363
11/26/2023 22:14:26.600,-0.047,-0.816,0.332
11/26/2023 22:14:26.610,-0.008,-0.82,0.313
11/26/2023 22:14:26.620,0.047,-0.844,0.285
11/26/2023 22:14:26.630,0.121,-0.863,0.223
11/26/2023 22:14:26.640,0.191,-0.875,0.164
11/26/2023 22:14:26.650,0.258,-0.891,0.133
11/26/2023 22:14:26.660,0.316,-0.926,0.199
11/26/2023 22:14:26.670,0.383,-1.012,0.395
11/26/2023 22:14:26.680,0.48,-1.109,0.617
11/26/2023 22:14:26.690,0.531,-1.191,0.75
11/26/2023 22:14:26.700,0.434,-1.242,0.715
11/26/2023 22:14:26.710,0.207,-1.27,0.559
11/26/2023 22:14:26.720,0.008,-1.277,0.355
11/26/2023 22:14:26.730,-0.105,-1.293,0.23
11/26/2023 22:14:26.740,-0.164,-1.328,0.191
11/26/2023 22:14:26.750,-0.191,-1.379,0.152
11/26/2023 22:14:26.760,-0.203,-1.449,0.078
11/26/2023 22:14:26.770,-0.129,-1.547,0.078
11/26/2023 22:14:26.780,0.035,-1.637,0.148
11/26/2023 22:14:26.790,0.215,-1.676,0.23
11/26/2023 22:14:26.800,0.352,-1.617,0.301
11/26/2023 22:14:26.810,0.406,-1.453,0.305
11/26/2023 22:14:26.820,0.395,-1.215,0.258
11/26/2023 22:14:26.830,0.355,-0.953,0.207
11/26/2023 22:14:26.840,0.313,-0.715,0.133
11/26/2023 22:14:26.850,0.27,-0.512,0.023
11/26/2023 22:14:26.860,0.219,-0.355,-0.09
11/26/2023 22:14:26.870,0.168,-0.297,-0.145
11/26/2023 22:14:26.880,0.129,-0.344,-0.137
11/26/2023 22:14:26.890,0.117,-0.496,-0.09
11/26/2023 22:14:26.900,0.152,-0.707,-0.027
11/26/2023 22:14:26.910,0.191,-0.922,0.043
11/26/2023 22:14:26.920,0.223,-1.105,0.094
11/26/2023 22:14:26.930,0.242,-1.215,0.129
11/26/2023 22:14:26.940,0.281,-1.25,0.164
11/26/2023 22:14:26.950,0.34,-1.223,0.199
11/26/2023 22:14:26.960,0.41,-1.145,0.238
11/26/2023 22:14:26.970,0.461,-1.051,0.273
11/26/2023 22:14:26.980,0.461,-0.957,0.262
11/26/2023 22:14:26.990,0.414,-0.863,0.23
11/26/2023 22:14:27.000,0.344,-0.793,0.188
11/26/2023 22:14:27.010,0.27,-0.746,0.164
11/26/2023 22:14:27.020,0.176,-0.746,0.156
11/26/2023 22:14:27.030,0.082,-0.762,0.168
11/26/2023 22:14:27.040,0.008,-0.785,0.172
11/26/2023 22:14:27.050,-0.039,-0.805,0.168
11/26/2023 22:14:27.060,-0.059,-0.813,0.16
11/26/2023 22:14:27.070,-0.07,-0.824,0.145
11/26/2023 22:14:27.080,-0.066,-0.832,0.141
11/26/2023 22:14:27.090,-0.059,-0.84,0.148
11/26/2023 22:14:27.100,-0.047,-0.844,0.16
11/26/2023 22:14:27.110,-0.027,-0.855,0.172
11/26/2023 22:14:27.120,-0.008,-0.863,0.184
11/26/2023 22:14:27.130,0.016,-0.875,0.203
11/26/2023 22:14:27.140,0.031,-0.895,0.219
11/26/2023 22:14:27.150,0.035,-0.922,0.23
11/26/2023 22:14:27.160,0.035,-0.949,0.246
11/26/2023 22:14:27.170,0.039,-0.984,0.27
11/26/2023 22:14:27.180,0.039,-1,0.289
11/26/2023 22:14:27.190,0.039,-1.004,0.289
11/26/2023 22:14:27.200,0.043,-0.992,0.273
11/26/2023 22:14:27.210,0.063,-0.957,0.258
11/26/2023 22:14:27.220,0.074,-0.934,0.254
11/26/2023 22:14:27.230,0.066,-0.926,0.25
11/26/2023 22:14:27.240,0.059,-0.93,0.234
11/26/2023 22:14:27.250,0.039,-0.934,0.23
11/26/2023 22:14:27.260,0.051,-0.957,0.27
11/26/2023 22:14:27.270,0.074,-0.984,0.324
11/26/2023 22:14:27.280,0.082,-1.012,0.371
11/26/2023 22:14:27.290,0.047,-1.004,0.371
11/26/2023 22:14:27.300,-0.039,-0.988,0.344
11/26/2023 22:14:27.310,-0.129,-0.992,0.348
11/26/2023 22:14:27.320,-0.168,-1.035,0.391
11/26/2023 22:14:27.330,-0.137,-1.098,0.395
11/26/2023 22:14:27.340,-0.074,-1.184,0.367
11/26/2023 22:14:27.350,-0.004,-1.281,0.348
11/26/2023 22:14:27.360,0.07,-1.375,0.309
11/26/2023 22:14:27.370,0.148,-1.441,0.23
11/26/2023 22:14:27.380,0.234,-1.488,0.152
11/26/2023 22:14:27.390,0.277,-1.508,0.074
11/26/2023 22:14:27.400,0.254,-1.48,-0.051
11/26/2023 22:14:27.410,0.223,-1.391,-0.176
11/26/2023 22:14:27.420,0.234,-1.266,-0.227
11/26/2023 22:14:27.430,0.273,-1.133,-0.18
11/26/2023 22:14:27.440,0.34,-1,-0.074
11/26/2023 22:14:27.450,0.422,-0.867,0.078
11/26/2023 22:14:27.460,0.523,-0.766,0.207
11/26/2023 22:14:27.470,0.633,-0.652,0.301
11/26/2023 22:14:27.480,0.656,-0.566,0.371
11/26/2023 22:14:27.490,0.59,-0.527,0.414
11/26/2023 22:14:27.500,0.461,-0.543,0.441
11/26/2023 22:14:27.510,0.328,-0.594,0.426
11/26/2023 22:14:27.520,0.184,-0.66,0.344
11/26/2023 22:14:27.530,0.016,-0.75,0.203
11/26/2023 22:14:27.540,-0.164,-0.883,0.074
11/26/2023 22:14:27.550,-0.305,-1.047,0
11/26/2023 22:14:27.560,-0.395,-1.238,-0.023
11/26/2023 22:14:27.570,-0.426,-1.43,0.004
11/26/2023 22:14:27.580,-0.395,-1.59,0.059
11/26/2023 22:14:27.590,-0.305,-1.68,0.141
11/26/2023 22:14:27.600,-0.18,-1.641,0.211
11/26/2023 22:14:27.610,-0.051,-1.441,0.238
11/26/2023 22:14:27.620,0.07,-1.176,0.242
11/26/2023 22:14:27.630,0.18,-0.926,0.254
11/26/2023 22:14:27.640,0.238,-0.77,0.262
11/26/2023 22:14:27.650,0.246,-0.715,0.27
11/26/2023 22:14:27.660,0.234,-0.723,0.273
11/26/2023 22:14:27.670,0.223,-0.73,0.293
11/26/2023 22:14:27.680,0.211,-0.727,0.309
11/26/2023 22:14:27.690,0.188,-0.707,0.313
11/26/2023 22:14:27.700,0.152,-0.668,0.313
11/26/2023 22:14:27.710,0.117,-0.641,0.309
11/26/2023 22:14:27.720,0.074,-0.621,0.285
11/26/2023 22:14:27.730,0.023,-0.629,0.254
11/26/2023 22:14:27.740,-0.02,-0.656,0.234
11/26/2023 22:14:27.750,-0.047,-0.723,0.238
11/26/2023 22:14:27.760,-0.07,-0.801,0.258
11/26/2023 22:14:27.770,-0.098,-0.863,0.262
11/26/2023 22:14:27.780,-0.125,-0.895,0.238
11/26/2023 22:14:27.790,-0.148,-0.91,0.199
11/26/2023 22:14:27.800,-0.129,-0.906,0.188
11/26/2023 22:14:27.810,-0.082,-0.883,0.203
